"Time (s)","Linear Acceleration x (m/s^2)","Linear Acceleration y (m/s^2)","Linear Acceleration z (m/s^2)","Absolute acceleration (m/s^2)"
1.189190950E-1,1.354144573E0,-2.074580193E-1,1.945165634E0,2.379162815E0
1.370230980E-1,8.117115498E-1,-9.891469479E-1,1.870164871E-1,1.293159886E0
1.551265520E-1,2.440380096E0,-2.002709389E0,3.557090759E-1,3.176921286E0
1.732299450E-1,3.337624073E0,-2.711161613E0,-1.800327301E-1,4.303782468E0
1.913269310E-1,4.717394352E0,-2.915758371E0,-4.241743088E-1,5.561958306E0
2.094269060E-1,4.657343864E0,-2.326261044E0,2.022625923E0,5.585101426E0
2.275355490E-1,2.293752432E0,-1.616571546E0,1.881012917E0,3.378285567E0
2.456408330E-1,2.145140409E0,-1.699717522E0,3.127679825E-1,2.754721554E0
2.637510640E-1,2.358448505E-1,-2.774154425E0,-1.253810883E0,3.053456614E0
2.818504910E-1,1.312253118E0,-1.848734617E0,3.074448586E0,3.819955763E0
2.999510140E-1,1.966544628E0,-6.415507793E-1,4.956159592E-1,2.127091995E0
3.180592920E-1,2.670769215E0,9.525008202E-1,-2.169326782E0,3.570188328E0
3.361631740E-1,1.978215098E0,4.499104023E-1,-1.145193100E0,2.329639797E0
3.542640650E-1,1.479891539E0,-1.173124671E0,2.242945671E0,2.932082152E0
3.723677630E-1,1.313784599E0,-2.357586861E0,2.311523438E0,3.553503395E0
3.904685320E-1,9.322001934E-1,-3.699453831E0,2.760398865E0,4.709008148E0
4.085783340E-1,1.191420555E0,-3.810905218E0,1.684293747E-1,3.996354586E0
4.266676290E-1,7.325813770E-1,-2.021175861E0,-3.426078796E0,4.044730307E0
4.447804830E-1,4.809887409E-1,-6.449240446E-1,-2.657958031E0,2.777052049E0
4.628862560E-1,1.194379568E0,-1.031510592E0,-1.697242737E0,2.317582698E0
4.809896510E-1,1.394351244E0,-1.009442329E0,-1.130352974E0,2.059341413E0
4.990888320E-1,1.155936360E0,-1.339973211E0,-2.602594376E0,3.147255083E0
5.171953990E-1,8.834523559E-1,-1.315102458E0,-3.553963661E0,3.891097563E0
5.352986710E-1,1.247416973E0,-3.924889565E-1,-2.347864151E0,2.687482606E0
5.534032250E-1,1.463670135E0,-4.281635284E-1,-3.423117638E0,3.747450951E0
5.714948380E-1,2.008651257E0,-8.684750795E-1,-1.230577469E0,2.510627360E0
5.896060430E-1,2.401581287E0,-7.849306464E-1,-3.027873516E0,3.943567779E0
6.077052270E-1,2.388083935E0,-3.423339128E-1,-3.076772690E0,3.909816821E0
6.258169810E-1,2.055456877E0,-8.578008413E-1,-1.875232697E0,2.911567090E0
6.439195820E-1,1.405777574E0,-1.714220285E0,-6.625471115E-1,2.313812967E0
6.620227920E-1,1.522868156E0,-1.127245426E0,-7.246942520E-1,2.028544166E0
6.801263690E-1,1.724787951E0,-7.425916791E-1,-2.991609573E-1,1.901534421E0
6.982299460E-1,1.568792701E0,-7.100241184E-1,2.114767075E0,2.727175199E0
7.163340720E-1,2.136440039E0,1.052521467E-1,6.303249359E0,6.656305772E0
7.344357560E-1,2.553354740E0,-4.052606821E-1,9.912311554E0,1.024391414E1
7.525407980E-1,1.300486922E0,-3.411086082E0,1.458494568E1,1.503487329E1
7.706349740E-1,7.308317423E-1,-5.822930813E0,1.820658875E1,1.912904891E1
7.887446550E-1,2.923025131E0,-4.063546658E0,1.858473969E1,1.924705267E1
8.068526870E-1,4.315955162E0,-2.005738735E0,1.626551437E1,1.694748992E1
8.249525400E-1,4.069348335E0,-6.284103394E-1,1.293964958E1,1.357899211E1
8.430596560E-1,3.386549473E0,1.489221573E0,9.587538719E0,1.027654596E1
8.611607930E-1,2.038067579E0,3.173278809E0,6.060185432E0,7.137875407E0
8.792646130E-1,1.051738381E0,2.525155067E0,4.291344643E0,5.089027469E0
8.973675180E-1,9.228228331E-1,-2.033329010E-2,4.023362160E0,4.127887897E0
9.154718280E-1,1.230165958E0,-2.713483810E0,3.240238190E0,4.401754900E0
9.335759540E-1,1.891852617E0,-3.143353939E0,1.027828217E0,3.810014587E0
9.516652490E-1,2.215967178E0,-2.634819508E0,-2.332404613E0,4.158472755E0
9.697811550E-1,2.312741041E0,-2.397850990E0,-5.312009335E0,6.270239522E0
9.878849150E-1,2.261242867E0,-1.885778427E0,-8.040664673E0,8.562807248E0
1.005989100E0,1.850377321E0,-1.215021014E0,-1.096169472E1,1.118297471E1
1.024091701E0,1.366372108E0,-1.510008454E0,-1.230328846E1,1.247068584E1
1.042195157E0,1.012652040E0,-2.369544983E0,-1.167031670E1,1.195142248E1
1.060288295E0,1.301633358E0,-3.046639442E0,-1.074218941E1,1.124148098E1
1.078398464E0,1.617236614E0,-3.567739487E0,-9.338071823E0,1.012639149E1
1.096502834E0,1.923887968E0,-3.785679340E0,-7.908692360E0,8.976643461E0
1.114608729E0,1.988788366E0,-3.965045691E0,-7.243731976E0,8.494028457E0
1.132713466E0,1.524478436E0,-4.390293121E0,-8.366073608E0,9.570261011E0
1.150811306E0,1.618837357E0,-4.002415657E0,-1.010667515E1,1.099021601E1
1.168917019E0,1.459086895E0,-3.566853762E0,-1.181215572E1,1.242491059E1
1.187022914E0,1.481354952E0,-3.094482422E0,-1.235274696E1,1.282031948E1
1.205126064E0,1.454701424E0,-2.860260487E0,-1.227178955E1,1.268440243E1
1.223216578E0,1.750731230E0,-2.613215208E0,-1.132561111E1,1.175429371E1
1.241335903E0,1.928822041E0,-1.966625214E0,-9.763528824E0,1.014467665E1
1.259436428E0,1.486073852E0,-1.988308668E0,-8.038919449E0,8.413442384E0
1.277539942E0,1.496932983E0,-2.560856581E0,-3.089704514E0,4.283114377E0
1.295644619E0,6.680530310E-1,-1.365628958E0,4.147238731E0,4.417106111E0
1.313746731E0,2.869552374E-1,2.028264523E0,9.121727943E0,9.348910148E0
1.331849392E0,2.188832521E0,3.553683281E0,1.163020802E1,1.235643117E1
1.349955777E0,4.231948376E0,4.799068928E0,1.394564629E1,1.534345137E1
1.368057033E0,4.420707703E0,2.327550411E0,1.603102875E1,1.679148684E1
1.386160855E0,5.220045090E0,-1.551942825E-1,1.631347084E1,1.712898966E1
1.404252468E0,6.542436600E0,-1.030671835E0,1.497347927E1,1.637286910E1
1.422368557E0,6.494380951E0,-1.496561766E0,1.222948265E1,1.392755998E1
1.440471034E0,5.341300964E0,-1.539828539E0,7.425756454E0,9.275905715E0
1.458564906E0,3.815826178E0,-1.194011688E0,2.124908447E0,4.527850399E0
1.476675259E0,2.429360867E0,-6.373908520E-1,-1.839267731E0,3.113031819E0
1.494782069E0,1.458370209E0,-3.824975491E-1,-3.968531609E0,4.245278692E0
1.512887478E0,8.982391357E-1,-8.340837955E-1,-5.739555359E0,5.868988417E0
1.530983363E0,7.958133221E-1,-1.395926237E0,-5.993166924E0,6.204835105E0
1.549080165E0,9.929820299E-1,-2.120898008E0,-4.875423431E0,5.408694418E0
1.567195950E0,1.287251830E0,-2.291927338E0,-4.475169182E0,5.190095124E0
1.585298489E0,1.341730356E0,-1.837935209E0,-5.072794437E0,5.559810211E0
1.603401942E0,9.390906096E-1,-1.663077593E0,-6.288993359E0,6.572606463E0
1.621502528E0,4.489929676E-1,-1.419695497E0,-7.457168102E0,7.604372827E0
1.639612942E0,5.195760727E-2,-1.546989202E0,-7.559888840E0,7.716721743E0
1.657711147E0,5.624028444E-1,-1.093783617E0,-6.827103615E0,6.937002474E0
1.675815211E0,1.385455966E0,-4.006080627E-1,-5.422369003E0,5.610887689E0
1.693920864E0,1.521650434E0,-3.033173084E-1,-2.995520592E0,3.373509307E0
1.712014797E0,1.140998363E0,-4.668209553E-1,-5.137004852E-1,1.335547550E0
1.730121242E0,5.208348036E-1,4.142916203E-2,1.099387169E0,1.217225294E0
1.748217800E0,4.961669445E-1,1.424160719E0,3.787524223E0,4.076733390E0
1.766332972E0,1.729645729E-1,1.827918291E0,1.036583424E1,1.052718963E1
1.784436795E0,7.199718952E-1,-3.990900517E-2,1.930872536E1,1.932218484E1
1.802540492E0,3.590932846E0,-2.083569050E0,2.810924911E1,2.841418562E1
1.820643153E0,5.643115520E0,-3.960532188E0,3.271281433E1,3.343140424E1
1.838746731E0,5.901270866E0,-5.295135975E0,3.202573013E1,3.299258786E1
1.856851223E0,5.891750336E0,-4.035416603E0,2.668936348E1,2.762823614E1
1.874953518E0,5.847119808E0,-4.566192627E-1,1.895121384E1,1.983798924E1
1.893056971E0,4.628172874E0,1.351759672E0,1.290024853E1,1.377184267E1
1.911160305E0,3.450196266E0,1.678658724E0,8.815904617E0,9.614672309E0
1.929265041E0,2.644309282E0,1.183849096E0,4.119499207E0,5.036282754E0
1.947354275E0,2.090743542E0,3.624606133E-1,-1.596322060E0,2.655339973E0
1.965471766E0,2.626778364E0,4.642319679E-2,-7.063704967E0,7.536447940E0
1.983574795E0,4.242423058E0,-5.644288063E-1,-9.514101982E0,1.043239521E1
2.001667079E0,4.411164761E0,-2.700503826E0,-9.900337219E0,1.116994953E1
2.019781093E0,3.495200634E0,-4.474421501E0,-1.006402016E1,1.155514504E1
2.037884670E0,2.531533003E0,-4.529603004E0,-1.051906395E1,1.172930813E1
2.055988186E0,1.790545464E0,-4.006847858E0,-1.230385494E1,1.306314393E1
2.074092616E0,1.107392073E0,-4.067014694E0,-1.427281570E1,1.488221065E1
2.092183070E0,1.585993528E0,-4.166899204E0,-1.416477394E1,1.484989041E1
2.110293544E0,2.391602993E0,-4.699199677E0,-1.221188927E1,1.330159697E1
2.128401454E0,2.560851336E0,-6.017792702E0,-9.647963524E0,1.165568482E1
2.146506312E0,2.627723217E0,-6.701487541E0,-7.643677235E0,1.049955553E1
2.164607265E0,2.837959051E0,-6.333085060E0,-7.809846878E0,1.044775987E1
2.182713283E0,2.813509941E0,-5.521032810E0,-9.314627647E0,1.118748987E1
2.200815518E0,2.411087513E0,-5.124665737E0,-1.117707729E1,1.253006779E1
2.218916897E0,1.806063533E0,-5.257289886E0,-1.186357403E1,1.310134921E1
2.237010035E0,1.511688709E0,-5.502649307E0,-1.186762047E1,1.316832441E1
2.255127163E0,2.019592762E0,-4.938374519E0,-1.123852539E1,1.244068932E1
2.273229153E0,2.573452950E0,-4.325116634E0,-1.017046642E1,1.134758482E1
2.291322108E0,2.605242491E0,-4.010153770E0,-9.679908752E0,1.079672428E1
2.309432278E0,2.323151112E0,-3.977294445E0,-9.223660469E0,1.030979217E1
2.327543850E0,1.908578873E0,-4.074803352E0,-8.243651390E0,9.391724225E0
2.345643215E0,9.587406516E-1,-4.448697090E0,-5.976349831E0,7.511780530E0
2.363747645E0,6.530028582E-1,-3.737549305E0,-2.364767075E0,4.470772960E0
2.381850062E0,4.543390274E-1,-1.008226156E0,1.562387466E0,1.914157394E0
2.399953456E0,-3.986327648E-1,4.026811600E0,1.286820412E0,4.246177871E0
2.418056971E0,2.389318705E0,8.977375031E0,4.592830658E0,1.036321378E1
2.436160549E0,6.985605240E0,5.976737976E0,1.791046524E1,2.013218425E1
2.454263576E0,8.045765877E0,-3.521321297E0,3.469448471E1,3.578884353E1
2.472367030E0,7.320412159E0,-5.986045837E0,3.747358704E1,3.864829756E1
2.490464320E0,6.211963177E0,-2.890234947E0,2.697310066E1,2.782966230E1
2.508573024E0,4.521187782E0,2.827894688E-1,1.508450508E1,1.575002865E1
2.526680079E0,2.953404427E0,1.380219698E0,7.344205856E0,8.035232653E0
2.544780970E0,1.724627256E0,9.661097527E-1,3.176303864E0,3.741204814E0
2.562879481E0,2.059621811E0,1.283740520E0,8.322591782E-1,2.565674778E0
2.580988978E0,3.540477753E0,2.591438293E0,-1.145587921E0,4.534634145E0
2.599090999E0,3.798088551E0,2.900078297E0,-3.281403065E0,5.796855772E0
2.617190030E0,3.089878082E0,1.485527277E0,-4.539819717E0,5.688945502E0
2.635298031E0,2.502798080E0,9.392118454E-2,-4.796609402E0,5.411125684E0
2.653401516E0,1.976908326E0,-8.412065506E-1,-5.862592697E0,6.243860034E0
2.671504788E0,1.533804059E0,-1.009758830E0,-7.556326866E0,7.776261537E0
2.689603665E0,1.252752423E0,-5.141228437E-1,-8.926764488E0,9.028888922E0
2.707711788E0,1.257200718E0,2.158842087E-1,-9.335086823E0,9.421836637E0
2.725815091E0,1.107775450E0,6.506350040E-1,-9.430601120E0,9.517706123E0
2.743917751E0,1.159106016E0,7.572264671E-1,-9.133337021E0,9.237681734E0
2.762022152E0,1.311875105E0,6.611949205E-1,-7.919045448E0,8.054158915E0
2.780126186E0,1.557991743E0,7.756788731E-1,-6.003841400E0,6.251010122E0
2.798228909E0,1.860353947E0,1.113541126E0,-4.175645351E0,4.704987221E0
2.816332394E0,1.718062758E0,7.404695749E-1,-6.837444305E-1,1.991868791E0
2.834435940E0,4.415639639E-1,-4.814210534E-1,3.089221001E0,3.157535646E0
2.852539181E0,-1.066339493E0,-1.076551795E0,5.306273460E0,5.518385789E0
2.870642757E0,-1.056734562E0,-8.449372053E-1,8.959759712E0,9.061341011E0
2.888738156E0,3.456431627E-1,-7.828719020E-1,1.419893360E1,1.422469940E1
2.906849483E0,1.903509140E0,-2.831501961E0,1.831387711E1,1.862897864E1
2.924953030E0,3.018762112E0,-5.102033615E0,2.008793640E1,2.094442314E1
2.943056820E0,5.634369850E0,-3.907876492E0,2.192034912E1,2.296778892E1
2.961159756E0,7.920148849E0,-1.908214331E0,2.398038483E1,2.532644658E1
2.979263333E0,7.942081928E0,-4.537937641E-1,2.345536423E1,2.476765441E1
2.997365169E0,5.158072948E0,-3.968012333E-1,1.997982025E1,2.063871084E1
3.015472042E0,1.952569723E0,-9.963321686E-2,1.425356388E1,1.438702675E1
3.033573605E0,6.955888271E-1,7.380850315E-1,8.405048370E0,8.466017448E0
3.051677151E0,1.384361029E0,1.589034081E0,3.333396912E0,3.943731702E0
3.069775784E0,3.842680454E0,2.715878248E0,3.556127548E-1,4.718966853E0
3.087883663E0,6.389511585E0,2.917110920E0,-1.654494286E0,7.216144799E0
3.105987423E0,6.141635895E0,2.843289375E-1,-4.752406120E0,7.770836399E0
3.124090358E0,4.260256767E0,-2.787946701E0,-8.926353455E0,1.027629410E1
3.142195248E0,2.439239740E0,-4.571088791E0,-1.255125427E1,1.357861285E1
3.160297360E0,2.225864172E0,-4.837845802E0,-1.392635822E1,1.490981813E1
3.178389798E0,3.294955492E0,-4.821109295E0,-1.386473465E1,1.504429106E1
3.196504544E0,4.044701099E0,-5.108543873E0,-1.337386894E1,1.487673344E1
3.214608028E0,3.903430939E0,-5.845390320E0,-1.271183681E1,1.452570674E1
3.232700374E0,3.241166830E0,-6.471584797E0,-1.163780785E1,1.370493136E1
3.250813320E0,3.013720512E0,-6.498711586E0,-1.165348721E1,1.367916400E1
3.268919887E0,2.474005461E0,-6.587008476E0,-1.204590034E1,1.395037988E1
3.287021542E0,1.954731703E0,-6.509725571E0,-1.299975967E1,1.466939858E1
3.305124569E0,1.858265162E0,-5.842330456E0,-1.452901649E1,1.576953693E1
3.323228634E0,2.558638096E0,-4.847617149E0,-1.425172806E1,1.526950469E1
3.341332759E0,3.120482922E0,-4.232007027E0,-1.288265324E1,1.391438290E1
3.359435696E0,2.854900360E0,-4.433201790E0,-1.161850452E1,1.275905097E1
3.377527737E0,2.197954655E0,-4.787446976E0,-1.073178387E1,1.195499219E1
3.395642208E0,2.014935493E0,-4.692117214E0,-1.062003994E1,1.178393726E1
3.413745755E0,2.635912895E0,-3.580325127E0,-9.997550964E0,1.094156251E1
3.431837307E0,2.503293753E0,-3.183567047E0,-7.254303932E0,8.308219081E0
3.449947079E0,2.216926098E0,-2.034660101E0,-2.710123539E0,4.049613889E0
3.468056881E0,1.600625515E-1,1.299121380E-1,1.147271156E0,1.165645010E0
3.486159542E0,-6.261396408E-1,4.405022621E0,5.179243088E0,6.827945087E0
3.504251400E0,3.556470156E0,6.186992645E0,1.365235710E1,1.540500608E1
3.522366299E0,8.415995598E0,7.592704296E-1,2.893131638E1,3.014011514E1
3.540469876E0,9.457865715E0,-6.575294495E0,4.082690048E1,4.242076761E1
3.558573360E0,7.868594646E0,-7.092999458E0,3.807759476E1,3.952377317E1
3.576665493E0,6.348341465E0,-2.385821342E0,2.543307877E1,2.632176055E1
3.594780208E0,4.463261604E0,1.848887205E0,1.037378311E1,1.144353372E1
3.612883328E0,2.537227869E0,2.794096470E0,1.101040840E0,3.931512594E0
3.630986751E0,1.349518061E0,1.571226597E0,-2.019526482E0,2.892825474E0
3.649085812E0,1.165759325E0,3.716964722E-1,-3.145596504E0,3.375193393E0
3.667193966E0,1.956594110E0,4.544210434E-1,-4.061623096E0,4.531174370E0
3.685297268E0,3.094512939E0,1.568337440E0,-5.545382500E0,6.541174186E0
3.703400204E0,3.575416088E0,1.996187687E0,-7.579850197E0,8.615247790E0
3.721503872E0,2.737348318E0,7.224993706E-1,-9.815990448E0,1.021610247E1
3.739607571E0,1.288949013E0,-1.530588150E0,-1.026568604E1,1.045889093E1
3.757711087E0,9.230017662E-1,-2.239437103E0,-8.501534462E0,8.839858540E0
3.775814358E0,1.152537584E0,-1.688735008E0,-6.613915443E0,6.922719574E0
3.793917385E0,1.384177446E0,-6.537801027E-1,-6.825410366E0,6.994969785E0
3.812021816E0,1.700895309E0,8.959883451E-1,-8.622225761E0,8.833946856E0
3.830124691E0,1.737334609E0,1.577245712E0,-9.651264191E0,9.932418440E0
3.848228146E0,1.409013510E0,5.580934286E-1,-8.747350693E0,8.877664754E0
3.866331661E0,1.281220555E0,-9.355938435E-1,-5.810922623E0,6.023593917E0
3.884434994E0,1.692173481E0,-1.591275215E0,-2.110195160E0,3.138237007E0
3.902538692E0,2.044195175E0,-1.286749363E0,4.092731476E-1,2.449890272E0
3.920626614E0,1.419614315E0,-7.395740747E-1,9.364500046E-1,1.854511587E0
3.938743679E0,9.422520399E-1,-4.949618280E-1,1.646122932E0,1.960241523E0
3.956850613E0,1.920002580E0,-1.894991159E0,8.331933022E0,8.757768510E0
3.974952267E0,4.173386574E0,-5.619009972E0,2.254242706E1,2.360405572E1
3.993055782E0,5.702483177E0,-1.018020535E1,3.432156754E1,3.625086059E1
4.011159085E0,6.490890026E0,-1.194513702E1,3.553681183E1,3.804842897E1
4.029257962E0,6.986417294E0,-9.788361549E0,2.917112541E1,3.155275909E1
4.047366116E0,6.700852871E0,-5.617448330E0,2.049686050E1,2.228404015E1
4.065467647E0,5.794086456E0,-1.930863857E0,1.297208595E1,1.433787596E1
4.083572292E0,4.448015213E0,3.635709286E-1,7.944168091E0,9.111905937E0
4.101676785E0,3.148441792E0,1.610186577E0,4.644822121E0,5.837787171E0
4.119779659E0,3.097885132E0,2.470142841E0,9.233627319E-1,4.068303907E0
4.137881497E0,3.555843592E0,2.471386194E0,-3.374418259E0,5.489851724E0
4.155987575E0,4.138665199E0,1.569016218E0,-5.509232044E0,7.066965349E0
4.174090633E0,4.579481125E0,7.822251320E-2,-5.772052288E0,7.368470245E0
4.192192745E0,4.163063049E0,-1.982453346E0,-5.132311344E0,6.899408305E0
4.210297451E0,3.074531555E0,-3.231535196E0,-5.244275093E0,6.884619471E0
4.228400296E0,1.671093225E0,-3.408596277E0,-6.566794395E0,7.585108423E0
4.246503811E0,1.479481220E0,-3.006309748E0,-8.598088264E0,9.227886258E0
4.264607083E0,2.381803513E0,-2.468001842E0,-9.924884796E0,1.050082660E1
4.282708157E0,2.929508209E0,-3.031119347E0,-9.112910271E0,1.004065916E1
4.300802669E0,2.406937599E0,-5.243384361E0,-7.655951023E0,9.586449511E0
4.318918637E0,1.695073128E0,-6.827738762E0,-7.248280525E0,1.010093362E1
4.337021145E0,1.839790106E0,-6.467267036E0,-9.136161804E0,1.134371293E1
4.355124417E0,2.128305912E0,-5.519164085E0,-1.212932205E1,1.349486242E1
4.373227932E0,2.091320992E0,-4.917128086E0,-1.525801659E1,1.616659650E1
4.391331417E0,2.740994215E0,-3.690393448E0,-1.645726395E1,1.708723470E1
4.409418148E0,3.499019146E0,-3.106743336E0,-1.544162750E1,1.613501934E1
4.427536770E0,3.104625702E0,-3.842776775E0,-1.408472443E1,1.492598728E1
4.445642941E0,2.176712513E0,-4.513889313E0,-1.325389671E1,1.416965251E1
4.463745235E0,1.430020690E0,-4.837436199E0,-1.313846493E1,1.407355708E1
4.481847134E0,1.974190712E0,-4.054661274E0,-1.187317753E1,1.270078941E1
4.499953670E0,2.002707958E0,-3.381536722E0,-1.096348000E1,1.164660995E1
4.518053128E0,1.165405989E0,-3.377397537E0,-8.690649033E0,9.396401750E0
4.536160702E0,3.323624134E-1,-1.887782335E0,-4.676271439E0,5.053879845E0
4.554262691E0,-1.571698904E0,6.249589920E-1,1.487211227E0,2.252245196E0
4.572365597E0,6.893727779E-1,5.863822460E0,7.423282623E0,9.484976203E0
4.590469143E0,6.159435272E0,1.075218201E1,1.449457169E1,1.906936468E1
4.608567806E0,6.384037495E0,2.827541113E0,2.608866882E1,2.700684292E1
4.626672207E0,2.841420650E0,-4.257081985E0,3.450037766E1,3.487796549E1
4.644779720E0,3.690634251E0,-2.797690392E0,2.728606033E1,2.767628843E1
4.662882565E0,7.390926361E0,2.298218727E0,1.476447105E1,1.667024917E1
4.680987056E0,6.800634861E0,2.396518946E0,1.038633060E1,1.264388394E1
4.699089749E0,3.613919735E0,-1.476079583E0,9.029930115E0,9.837624950E0
4.717193264E0,2.062763929E0,-2.668346405E0,4.631465912E0,5.729358084E0
4.735296749E0,2.086067677E0,-1.905803800E0,-2.276506424E-1,2.834711853E0
4.753400082E0,2.557869911E0,-7.450976372E-1,-3.616005898E0,4.491477221E0
4.771503231E0,2.759719133E0,-1.013926983E0,-4.859467983E0,5.679659030E0
4.789590999E0,2.558303833E0,-2.171392202E0,-4.330642700E0,5.478533453E0
4.807710384E0,2.348398685E0,-2.943609715E0,-3.380542755E0,5.060423288E0
4.825813839E0,1.920208931E0,-2.929914474E0,-3.948959351E0,5.278814367E0
4.843917141E0,1.600085974E0,-2.307289839E0,-5.369733334E0,6.059529486E0
4.862021114E0,1.657840014E0,-1.343914747E0,-6.047573566E0,6.413087119E0
4.880124417E0,1.723465562E0,-1.002227783E0,-4.883875847E0,5.275133871E0
4.898215725E0,1.851278067E0,-6.243290901E-1,-3.785926342E0,4.260311674E0
4.916330960E0,1.698655009E0,-6.135126352E-1,-3.719582558E0,4.134866503E0
4.934434688E0,1.873588204E0,-4.022905827E-1,-4.580799580E0,4.965470296E0
4.952526272E0,2.686252594E0,-7.212448120E-2,-5.388620377E0,6.021493544E0
4.970641232E0,2.957113743E0,-4.961216450E-1,-5.270963669E0,6.064133604E0
4.988740170E0,2.203917742E0,-1.450447559E0,-4.158201218E0,4.924600380E0
5.006846829E0,1.064938903E0,-2.189426184E0,-3.022052765E0,3.880784044E0
5.024952999E0,4.383597374E-1,-1.592599154E0,-3.232007980E0,3.629656583E0
5.043054684E0,9.639906883E-2,-6.861281395E-2,-3.569508553E0,3.571469138E0
5.061159451E0,4.487880468E-1,1.504873633E0,-2.475467682E0,2.931551741E0
5.079262112E0,1.196419239E0,1.841356635E0,2.756341934E0,3.524121750E0
5.097365384E0,2.742806911E0,4.279572964E-1,1.385526848E1,1.413062638E1
5.115467678E0,3.528723717E0,-2.638422012E0,2.829645920E1,2.863743642E1
5.133573605E0,3.005477428E0,-5.237125874E0,3.393933868E1,3.447229456E1
5.151675655E0,3.346090078E0,-5.890866280E0,3.291522598E1,3.360521873E1
5.169777767E0,4.541398048E0,-3.631864071E0,2.774569511E1,2.834851549E1
5.187884366E0,4.382451534E0,-4.308903217E-1,1.796309280E1,1.849497908E1
5.205985989E0,4.280036449E0,2.157464504E0,1.035082722E1,1.140670808E1
5.224089749E0,5.326389790E0,3.424780607E0,8.631391525E0,1.070516091E1
5.242181637E0,5.266343117E0,2.205799580E0,5.933983803E0,8.234809371E0
5.260295956E0,4.685265064E0,5.768060684E-2,1.509112358E0,4.922647244E0
5.278399807E0,4.827637196E0,-7.606838942E-1,-2.195858955E0,5.357846343E0
5.296503292E0,6.141193390E0,-6.903183460E-1,-5.628736496E0,8.359035244E0
5.314594143E0,7.083117485E0,-4.807376862E-1,-1.010688400E1,1.235114433E1
5.332700863E0,4.201647758E0,-2.655928850E0,-1.400571918E1,1.486162750E1
5.350813565E0,1.532475948E0,-3.970175982E0,-1.664236450E1,1.717786588E1
5.368912533E0,1.203166604E0,-4.445918083E0,-1.627592087E1,1.691506422E1
5.387020870E0,1.977978706E0,-4.569954872E0,-1.443327427E1,1.526814637E1
5.405124173E0,1.667850018E0,-5.310000420E0,-1.158773041E1,1.285508943E1
5.423227657E0,7.219083309E-1,-6.272579193E0,-9.219246864E0,1.117411805E1
5.441330685E0,4.338662624E-1,-6.109762192E0,-8.452001572E0,1.043809200E1
5.459434872E0,9.531030655E-1,-5.095739365E0,-9.632113457E0,1.093858194E1
5.477537869E0,1.831024170E0,-3.610194206E0,-1.054072285E1,1.129127937E1
5.495640651E0,2.420766354E0,-2.696801662E0,-9.606756210E0,1.026755150E1
5.513733669E0,2.485796452E0,-2.294660091E0,-9.016100883E0,9.629887023E0
5.531848263E0,2.327048540E0,-2.279905796E0,-8.712560654E0,9.301711589E0
5.549951534E0,2.427435398E0,-2.252731323E0,-8.081893921E0,8.734085549E0
5.568050228E0,2.583759546E0,-1.951238751E0,-7.754052162E0,8.402884683E0
5.586154385E0,2.701313972E0,-1.568658829E0,-6.812005997E0,7.494078556E0
5.604260677E0,2.198848963E0,-1.762262106E0,-6.318758011E0,6.918613105E0
5.622366238E0,1.804772973E0,-1.802587032E0,-6.030289650E0,6.547588774E0
5.640469234E0,1.646909952E0,-1.723013163E0,-3.593708038E0,4.312287585E0
5.658571285E0,1.809324980E0,-2.197020054E-1,-5.345001221E-1,1.899372590E0
5.676673611E0,1.338529587E0,2.391563416E0,5.280618668E-1,2.791072618E0
5.694779202E0,-7.529290915E-1,4.087144375E0,2.530416489E0,4.865661205E0
5.712882473E0,-1.685586810E0,3.897337914E0,6.942142487E0,8.137799949E0
5.730985989E0,6.783946753E-1,3.983338594E0,1.174199772E1,1.241779836E1
5.749089718E0,2.308973074E0,1.479403734E0,1.630105972E1,1.653011011E1
5.767193020E0,3.106053591E0,-1.982947588E0,1.713170242E1,1.752355209E1
5.785296292E0,4.270733833E0,-2.846478701E0,1.398658943E1,1.489853323E1
5.803394284E0,3.659657478E0,-2.540850639E0,1.010717964E1,1.104554639E1
5.821504696E0,1.818595052E0,-2.914469719E0,6.599758148E0,7.440311104E0
5.839606839E0,7.415740490E-1,-2.484071255E0,3.973325729E0,4.744244874E0
5.857710323E0,9.777460098E-1,-7.973226309E-1,2.087669373E0,2.439277362E0
5.875813626E0,1.497380614E0,7.386000156E-1,1.119203568E-1,1.673381264E0
5.893917141E0,1.728585482E0,1.114638329E0,-1.343822479E0,2.456885269E0
5.912020657E0,1.996463656E0,8.024840355E-1,-2.084505558E0,2.995832302E0
5.930123684E0,2.187498569E0,2.401010990E-1,-1.625243664E0,2.735729427E0
5.948220669E0,1.923935533E0,-3.944931030E-1,-1.307817459E0,2.359563360E0
5.966332821E0,1.738873243E0,-4.902352095E-1,-2.681082726E0,3.232988602E0
5.984434444E0,1.713505268E0,-4.098069668E-1,-4.738236904E0,5.055188524E0
6.002537808E0,1.681282401E0,-4.748762846E-1,-5.478039742E0,5.749881512E0
6.020641445E0,1.857920051E0,-4.890527725E-1,-5.625190735E0,5.944224956E0
6.038744534E0,1.824922204E0,-4.915134907E-1,-6.107371330E0,6.393114353E0
6.056848294E0,2.111784220E0,-1.082637548E0,-5.522433758E0,6.010741324E0
6.074939480E0,2.452059746E0,-2.271254778E0,-3.919372082E0,5.150987554E0
6.093055661E0,1.851024032E0,-2.880334854E0,-1.879295349E0,3.905684299E0
6.111158596E0,1.463209510E0,-2.111182213E0,3.353614807E-1,2.590470947E0
6.129261868E0,2.049412489E0,9.773290157E-2,9.292478561E-1,2.252364280E0
6.147365597E0,2.508864403E0,1.617362738E0,2.458946228E0,3.867386633E0
6.165468899E0,2.345692873E0,1.230054259E0,7.257548332E0,7.725756683E0
6.183572415E0,8.942810893E-1,-1.143542051E0,1.537238312E1,1.544077685E1
6.201675655E0,2.745239735E-1,-2.783401966E0,2.001966095E1,2.021409198E1
6.219779446E0,2.168743610E0,-1.707374573E0,2.048003006E1,2.066519315E1
6.237882718E0,2.581753016E0,-1.161906004E0,1.973023224E1,1.993232396E1
6.255986233E0,1.768738389E0,-1.666608691E0,1.752857399E1,1.769624045E1
6.274081661E0,2.212919235E0,-8.139400482E-1,1.578236294E1,1.595752142E1
6.292192837E0,2.605411530E0,1.493281603E0,1.163573647E1,1.201700555E1
6.310296719E0,2.551038504E0,3.567164421E0,6.119688988E0,7.528814831E0
6.328395199E0,2.988403797E0,4.393764019E0,2.340285301E0,5.806259967E0
6.346503262E0,3.775384903E0,2.937365055E0,1.608874321E0,5.046793161E0
6.364606839E0,2.263763666E0,-4.201133251E-1,1.218682289E0,2.605054254E0
6.382710354E0,5.575624704E-1,-3.183397532E0,-1.793820381E0,3.696307253E0
6.400809231E0,1.220111012E0,-3.965701580E0,-2.729022503E0,4.966188048E0
6.418912747E0,2.246052980E0,-3.676086903E0,-3.446312904E0,5.516832564E0
6.437020626E0,2.476314545E0,-3.127664566E0,-6.095075607E0,7.284529224E0
6.455123593E0,2.766083717E0,-2.197240353E0,-9.527933121E0,1.016172199E1
6.473233364E0,3.715077877E0,-1.401500225E0,-1.098549938E1,1.168106173E1
6.491330960E0,3.907929420E0,-1.831508756E0,-1.062207413E1,1.146537376E1
6.509434749E0,3.403453588E0,-3.058039188E0,-9.472791672E0,1.051992785E1
6.527529078E0,2.790544748E0,-4.211480618E0,-8.375900269E0,9.781585469E0
6.545641688E0,2.645626783E0,-4.425717354E0,-8.433524132E0,9.884869471E0
6.563745876E0,2.751397371E0,-4.039137840E0,-8.516396523E0,9.819054523E0
6.581848293E0,2.889786720E0,-4.128859997E0,-8.230002403E0,9.650455519E0
6.599952053E0,3.081886292E0,-4.333063126E0,-8.239982605E0,9.806669796E0
6.618055629E0,3.035557270E0,-4.458516598E0,-8.142553329E0,9.766993033E0
6.636159999E0,2.789615154E0,-4.473323345E0,-7.967334747E0,9.553585580E0
6.654246242E0,2.412493467E0,-4.413818359E0,-8.325818062E0,9.727341036E0
6.672365321E0,2.753489017E0,-3.805667400E0,-8.390834808E0,9.616179850E0
6.690469143E0,2.657721758E0,-3.456570148E0,-8.116614342E0,9.213619837E0
6.708578700E0,2.153680086E0,-3.348487377E0,-7.815948009E0,8.771530591E0
6.726676174E0,1.670089722E0,-3.004497051E0,-7.083569527E0,7.873573487E0
6.744779446E0,1.344942570E0,-3.024025440E0,-5.219502926E0,6.180356881E0
6.762882961E0,6.573448181E-1,-2.027038336E0,-2.533738136E0,3.310712245E0
6.780982875E0,-2.494828701E-1,5.748176575E-1,-6.216382980E-1,8.826614387E-1
6.799085292E0,-1.118647575E0,5.378402233E0,-1.076507568E-1,5.494558368E0
6.817193202E0,1.183345318E0,8.308103561E0,3.475555420E0,9.083191972E0
6.835296840E0,3.659519434E0,6.076375484E0,1.294158745E1,1.475801840E1
6.853400966E0,1.917120337E0,-3.996782303E-1,2.093829155E1,2.102967299E1
6.871501553E0,-3.274240494E-1,-2.522786617E0,1.942580032E1,1.959166601E1
6.889597316E0,1.227043033E0,2.993726730E-2,1.447590637E1,1.452784899E1
6.907709376E0,2.854580164E0,2.200724125E0,1.070012188E1,1.129090000E1
6.925816310E0,2.099362135E0,2.797935009E0,6.975565910E0,7.803478805E0
6.943917385E0,6.565253735E-1,2.212870121E0,3.515313148E0,4.205383011E0
6.962021145E0,2.374951839E-1,1.681731701E0,1.409532547E0,2.207126520E0
6.980124354E0,6.803616285E-1,9.023783207E-1,7.525587082E-1,1.357764040E0
6.998226467E0,1.250363588E0,-2.668237686E-2,1.431550980E0,1.900910113E0
7.016330959E0,1.359069824E0,-9.032239914E-1,1.018675804E0,1.923690401E0
7.034434047E0,1.612862825E0,-1.101961136E0,-1.259984970E-1,1.957427000E0
7.052539089E0,2.109325886E0,-5.976231098E-1,-1.717418671E0,2.784948108E0
7.070642483E0,2.259054899E0,-7.450079918E-2,-3.613046169E0,4.261805020E0
7.088744960E0,1.776814699E0,-1.709542274E-1,-3.705359459E0,4.112904636E0
7.106848597E0,1.242488861E0,-7.153046131E-1,-3.126701832E0,3.439724350E0
7.124951991E0,1.020264387E0,-1.096301794E0,-3.209876537E0,3.542050879E0
7.143056605E0,1.283411026E0,-1.052252054E0,-3.002762794E0,3.430883654E0
7.161158718E0,2.066965818E0,-7.990472317E-1,-2.708901882E0,3.499853366E0
7.179251125E0,2.695731401E0,-8.877642155E-1,-1.807407856E0,3.364790669E0
7.197365627E0,2.601639986E0,-1.732763290E0,-9.216666222E-1,3.258906043E0
7.215469326E0,2.056289196E0,-2.735115290E0,-1.154677391E0,3.611434726E0
7.233573941E0,1.898107529E0,-2.953593731E0,-2.194084167E0,4.140112734E0
7.251676174E0,2.298332214E0,-2.520573854E0,-3.873734951E0,5.161535236E0
7.269779628E0,2.696303368E0,-2.603414059E0,-5.292076111E0,6.484896774E0
7.287882778E0,2.310731649E0,-3.840795279E0,-4.574411392E0,6.404406976E0
7.305987819E0,1.249114513E0,-5.502616405E0,-2.906192303E0,6.347048769E0
7.324089992E0,8.195077181E-1,-6.036096096E0,-3.286726952E0,6.921605524E0
7.342188381E0,1.582639456E0,-4.907164097E0,-4.299700737E0,6.713600640E0
7.360290432E0,2.611524343E0,-3.025894403E0,-4.455557823E0,5.985657178E0
7.378403163E0,1.743934870E0,-2.336132765E0,-2.046223164E0,3.561720702E0
7.396503567E0,7.067569494E-1,-2.478547573E0,4.792295456E0,5.441396805E0
7.414605860E0,5.963119268E-1,-2.323047876E0,1.257585335E1,1.280250861E1
7.432712735E0,1.220415473E0,-1.585501432E0,1.595519161E1,1.608015448E1
7.450814114E0,1.136158705E0,-1.138572931E0,1.686142731E1,1.693797319E1
7.468918606E0,4.955952168E-1,-2.956547022E0,2.128533936E1,2.149540547E1
7.487019679E0,-5.371582508E-1,-3.599760771E0,2.057859802E1,2.089797869E1
7.505126613E0,7.236354351E-1,6.723370552E-1,1.409366512E1,1.412823704E1
7.523224940E0,3.394612312E0,7.976904869E0,9.105877876E0,1.257264554E1
7.541334133E0,3.476634502E0,1.112974548E1,6.911978722E0,1.355483942E1
7.559433803E0,1.568162918E0,7.848704338E0,5.875587463E0,9.928938652E0
7.577540125E0,5.526638031E-1,2.173731327E0,3.107895851E0,3.832696412E0
7.595641688E0,3.389559746E0,-6.339086294E-1,3.180329323E0,4.690996698E0
7.613745266E0,7.195370674E0,-4.128980637E-1,6.764612198E0,9.884524376E0
7.631836757E0,7.716912270E0,-1.943172514E-1,9.252744675E0,1.204997005E1
7.649953274E0,5.266016006E0,-8.758654594E-1,6.505253792E0,8.415247577E0
7.668055325E0,1.997696400E0,-2.813807249E0,-2.764704704E0,4.421752395E0
7.686145595E0,1.493714333E0,-2.223367214E0,-1.060696220E1,1.093993562E1
7.704261562E0,3.405138493E0,9.562349319E-2,-1.019460773E1,1.074868080E1
7.722367642E0,3.886120796E0,-7.161819935E-1,-8.987443924E0,9.817789964E0
7.740464808E0,2.692976236E0,-3.278529167E0,-1.028866959E1,1.112913278E1
7.758572536E0,1.465690374E0,-5.454282761E0,-1.198202229E1,1.324636957E1
7.776676174E0,1.065382957E0,-6.113230228E0,-1.408341980E1,1.538991026E1
7.794780666E0,1.215606451E0,-5.497448921E0,-1.497335052E1,1.599690188E1
7.812878323E0,1.463694096E0,-4.754840851E0,-1.491892433E1,1.572657671E1
7.830974758E0,1.659509420E0,-4.439969063E0,-1.458357906E1,1.533453863E1
7.849078212E0,2.157675266E0,-4.112203598E0,-1.372065544E1,1.448523962E1
7.867193631E0,2.691263199E0,-3.663940430E0,-1.382727337E1,1.455544042E1
7.885285855E0,2.942123890E0,-2.800108671E0,-1.481247711E1,1.535923760E1
7.903396755E0,2.465791702E0,-2.787897110E0,-1.380251884E1,1.429552467E1
7.921507351E0,1.990053535E0,-3.168213606E0,-1.117285156E1,1.178263564E1
7.939608547E0,1.539052486E0,-3.512816906E0,-8.287238121E0,9.131641739E0
7.957710598E0,8.554393053E-1,-3.184734106E0,-4.945568085E0,5.944152708E0
7.975813807E0,1.248851418E0,-3.881556988E-1,-3.216847897E0,3.472521433E0
7.993917385E0,1.704372525E0,4.799236774E0,-1.127243042E-2,5.092905496E0
8.012022059E0,1.803439975E0,6.350195885E0,8.197197914E0,1.052480105E1
8.030110226E0,2.975995779E0,2.856200457E0,2.023272324E1,2.064891090E1
8.048227657E0,3.064591885E0,-2.996981382E0,2.729265213E1,2.762720545E1
8.066331173E0,3.172252655E0,-5.550739765E0,2.558665848E1,2.637330072E1
8.084434688E0,4.743870258E0,-3.439586163E0,2.064653969E1,2.146193512E1
8.102538235E0,5.120791912E0,-1.127181888E0,1.526658154E1,1.614191936E1
8.120641507E0,3.437952995E0,-6.013699770E-1,1.069212341E1,1.124734056E1
8.138739651E0,1.754177809E0,-5.791813731E-1,5.801858902E0,6.088855193E0
8.156847378E0,1.183802843E0,7.395946980E-2,1.028837204E0,1.570148135E0
8.174953212E0,1.528958559E0,5.289269686E-1,-2.018054008E0,2.586507296E0
8.193055538E0,2.052429676E0,9.904941916E-1,-3.256061077E0,3.974352785E0
8.211158841E0,1.971906185E0,7.963573933E-1,-3.981541157E0,4.513897328E0
8.229262325E0,1.708540559E0,3.961323500E-1,-4.521097660E0,4.849366529E0
8.247361264E0,1.614773154E0,4.076722562E-1,-5.231046677E0,5.489766693E0
8.265469356E0,1.429321766E0,5.370004177E-1,-5.925771713E0,6.119321903E0
8.283568997E0,1.052442789E0,7.230299711E-1,-6.264364243E0,6.393173510E0
8.301676175E0,9.389063120E-1,7.608146667E-1,-6.072332859E0,6.191414246E0
8.319774807E0,1.400266171E0,9.581589699E-1,-5.874086380E0,6.114221517E0
8.337882931E0,2.042528391E0,7.923926711E-1,-4.690968037E0,5.177353522E0
8.355986446E0,1.966030598E0,-2.380067706E-1,-3.381740093E0,3.918939856E0
8.374089413E0,1.003488064E0,-1.219581723E0,-3.015255928E0,3.403841387E0
8.392193447E0,1.729323864E-1,-8.196544647E-1,-3.047438145E0,3.160477543E0
8.410297390E0,-1.336408854E-1,8.713542819E-1,-3.799071312E0,3.900007821E0
8.428400296E0,-1.706790924E-1,2.859013081E0,-4.380311012E0,5.233565870E0
8.446503597E0,-5.093348026E-1,3.506072998E0,-3.811073303E0,5.203484364E0
8.464607052E0,-1.493712664E0,1.941586256E0,-2.416553497E-1,2.461571047E0
8.482698880E0,-1.970118046E0,7.962300181E-1,5.643845558E0,6.030616887E0
8.500813076E0,-2.105400562E-1,7.067101002E-1,8.668392181E0,8.699700529E0
8.518918423E0,3.002757788E0,-2.383103967E-1,1.379366112E1,1.411872633E1
8.537020870E0,3.394837379E0,-7.307930946E0,2.542405891E1,2.667046207E1
8.555124173E0,2.378210306E0,-1.436112213E1,3.371966553E1,3.672755854E1
8.573227657E0,5.374218464E0,-1.396372128E1,3.045954895E1,3.393599650E1
8.591324124E0,7.045847416E0,-9.831922531E0,1.937155151E1,2.283785617E1
8.609434719E0,5.680999756E0,-5.863076210E0,1.198714924E1,1.450314337E1
8.627532589E0,4.749392033E0,-1.331379890E0,7.621780396E0,9.078592043E0
8.645641690E0,4.126992702E0,2.280180216E0,4.526916504E0,6.536380009E0
8.663744869E0,3.449515820E0,3.657577038E0,2.376946449E0,5.561196238E0
8.681848477E0,3.253878117E0,3.719479799E0,1.083199501E0,5.059206848E0
8.699947171E0,3.472850084E0,3.107142448E0,-2.500982285E-1,4.666644515E0
8.718055569E0,3.270243645E0,8.863070011E-1,-3.197698593E-1,3.403275828E0
8.736158841E0,3.219968319E0,-1.314745426E0,2.098646164E-1,3.484364313E0
8.754262325E0,4.039265633E0,-2.521856308E0,5.575780869E-1,4.794405011E0
8.772365628E0,4.535771370E0,-2.668866634E0,-2.499924660E0,5.826293362E0
8.790469143E0,4.634151459E0,-2.531878471E0,-7.319158554E0,9.025289484E0
8.808572659E0,4.676147461E0,-1.594816923E0,-1.129518509E1,1.232846310E1
8.826673001E0,3.518183470E0,-2.110342026E0,-1.259953308E1,1.325063743E1
8.844779385E0,2.283857822E0,-3.066609383E0,-1.309893322E1,1.364559091E1
8.862882992E0,2.104351997E0,-3.797165155E0,-1.350192451E1,1.418269108E1
8.880986477E0,2.541754246E0,-4.352508545E0,-1.365048313E1,1.455130699E1
8.899089718E0,2.563583374E0,-5.394550323E0,-1.177195072E1,1.320045290E1
8.917193264E0,2.077300549E0,-5.995381355E0,-1.115028000E1,1.282920571E1
8.935296780E0,1.977920055E0,-5.515967369E0,-1.231686211E1,1.363976378E1
8.953399441E0,2.387967825E0,-5.000538826E0,-1.350978947E1,1.460212965E1
8.971503933E0,3.138839245E0,-4.369572163E0,-1.441269779E1,1.538412592E1
8.989590175E0,3.357827902E0,-3.969095707E0,-1.400554085E1,1.493934079E1
9.007710842E0,3.136628389E0,-4.299503326E0,-1.226043320E1,1.336571692E1
9.025814144E0,2.709263086E0,-4.492228985E0,-1.160142803E1,1.273237449E1
9.043915890E0,2.369333744E0,-4.702555180E0,-1.151521969E1,1.266207140E1
9.062022365E0,1.929211617E0,-4.632178307E0,-1.092080879E1,1.201844408E1
9.080124173E0,2.189446926E0,-3.722140312E0,-9.192501068E0,1.015628289E1
9.098227901E0,1.247684002E0,-2.316028595E0,-5.729199409E0,6.304318337E0
9.116319485E0,-2.052831650E0,-7.852394581E-1,-1.966628551E0,2.949295958E0
9.134434475E0,-5.683701515E0,3.668779850E0,-3.498783112E-1,6.773981350E0
9.152538204E0,-1.076068640E0,1.102127934E1,7.491111755E-1,1.109899497E1
9.170641231E0,7.479780197E0,1.494045353E1,8.770914078E0,1.887043182E1
9.188745357E0,9.936635971E0,3.450594425E0,2.654783249E1,2.855574804E1
9.206843350E0,7.078260899E0,-9.751653671E0,3.718662262E1,3.909017048E1
9.224952022E0,5.127609253E0,-1.193567181E1,3.418622589E1,3.657117278E1
9.243055081E0,5.655209064E0,-7.268132210E0,2.713175011E1,2.865203307E1
9.261158565E0,4.753965378E0,-3.382390022E0,1.792541122E1,1.885102429E1
9.279257473E0,2.727843046E0,-1.885531425E0,8.599997520E0,9.217174936E0
9.297365628E0,2.704027176E0,-3.347640634E-1,2.654364586E0,3.803877141E0
9.315457149E0,3.843702793E0,8.830673695E-1,-1.270953178E0,4.143571059E0
9.333570370E0,4.416477680E0,1.298778534E0,-5.222900867E0,6.962096972E0
9.351677974E0,4.162016392E0,1.056530476E0,-7.951387405E0,9.036769266E0
9.369779202E0,3.755619764E0,4.757936001E-1,-8.673574448E0,9.463717719E0
9.387882901E0,3.175354242E0,-4.339500666E-1,-9.489926338E0,1.001648088E1
9.405985439E0,2.095561981E0,-1.913156033E0,-1.073280716E1,1.110156275E1
9.424090573E0,1.645501137E0,-2.709932566E0,-1.053504562E1,1.100175417E1
9.442187800E0,1.497426510E0,-2.559216499E0,-9.268950462E0,9.731665732E0
9.460291529E0,1.170953870E0,-2.079165697E0,-8.503851891E0,8.832302075E0
9.478388453E0,1.454093456E0,-8.038905263E-1,-7.144985676E0,7.335628676E0
9.496494960E0,3.265710354E0,1.900816560E0,-5.055157185E0,6.311305877E0
9.514606472E0,4.168610096E0,5.015735149E0,-2.200839043E0,6.883211584E0
9.532706752E0,2.741158009E0,4.967405319E0,3.103848457E0,6.467065647E0
9.550802883E0,-2.926256657E-1,2.477208138E0,9.714048386E0,1.002920366E1
9.568916530E0,-6.540648937E-1,7.122153044E-1,1.258852482E1,1.262560924E1
9.587022853E0,2.146071672E0,8.877456188E-1,1.524719810E1,1.542305955E1
9.605125331E0,2.890496731E0,-6.633371115E-1,1.847568893E1,1.871219039E1
9.623227748E0,1.670579910E0,-4.071021080E0,1.858532333E1,1.909916996E1
9.641331141E0,2.065487146E0,-4.863786697E0,1.710649872E1,1.790404861E1
9.659429652E0,3.310812473E0,-3.270672560E0,1.480119610E1,1.551561098E1
9.677538905E0,3.589931011E0,-1.756887436E0,1.142603874E1,1.210490064E1
9.695637844E0,3.301190615E0,2.540287971E-1,8.403306961E0,9.032051704E0
9.713744778E0,2.879055738E0,2.010168076E0,5.755564690E0,6.742125965E0
9.731843348E0,2.857293844E0,3.322618961E0,2.655877113E0,5.124217805E0
9.749952723E0,2.800417900E0,1.619870186E0,1.031091690E0,3.395507312E0
9.768055080E0,1.540578604E0,-3.631852627E0,3.796848297E0,5.475380620E0
9.786157436E0,-6.725640297E-1,-7.212905884E0,6.011880875E0,9.413876211E0
9.804262965E0,6.810853481E-1,-5.217815399E0,3.030248642E0,6.072222132E0
9.822366664E0,3.772683382E0,-9.810011387E-1,-3.873706818E0,5.495553443E0
9.840468777E0,3.636813164E0,-4.293615818E-1,-7.229372025E0,8.103985515E0
9.858572476E0,1.712626815E0,-2.759483576E0,-7.195113182E0,7.894143013E0
9.876675686E0,1.111589909E0,-3.722028255E0,-8.653543472E0,9.485406743E0
9.894777492E0,1.739341974E0,-3.084470272E0,-1.125261879E1,1.179663922E1
9.912881435E0,3.296617031E0,-9.892914295E-1,-1.272325325E1,1.318057490E1
9.930986905E0,4.031266212E0,-2.257823944E-1,-1.186076450E1,1.252915877E1
9.949077785E0,3.245708466E0,-2.137458086E0,-8.758494377E0,9.581992187E0
9.967194179E0,1.697254777E0,-4.772182941E0,-5.919047832E0,7.790348583E0
9.985296351E0,5.782892704E-1,-6.359149456E0,-5.396137238E0,8.360113478E0
1.000339968E1,6.273925304E-1,-6.310436249E0,-6.198900700E0,8.868009750E0
1.002150344E1,1.486835718E0,-5.415303230E0,-6.316800594E0,8.452109753E0
1.003959457E1,1.835871935E0,-5.006980896E0,-6.491221428E0,8.400966556E0
1.005770980E1,1.766336679E0,-4.979568481E0,-6.507439137E0,8.382291551E0
1.007581362E1,1.642814040E0,-4.821734428E0,-6.588806152E0,8.328284780E0
1.009391836E1,1.597384810E0,-4.496999264E0,-6.932160378E0,8.416025672E0
1.011201101E1,2.027911425E0,-3.685030222E0,-7.181514740E0,8.322621369E0
1.013012252E1,2.419023514E0,-3.158994436E0,-6.678392410E0,7.773792240E0
1.014822738E1,2.202442884E0,-3.216193676E0,-3.987127781E0,5.576006130E0
1.016632949E1,1.593985796E0,-2.259858608E0,-5.849876404E-1,2.826652116E0
1.018443551E1,1.176108837E0,6.172552109E-1,9.605550766E-2,1.331714178E0
1.020253836E1,1.438723564E0,4.105264187E0,1.075696945E-1,4.351401013E0
1.022064132E1,1.947477221E0,7.282216549E0,1.404941559E0,7.667933632E0
1.023873452E1,1.927119255E0,7.244960785E0,5.393199921E0,9.235250445E0
1.025684634E1,2.045061588E-1,5.963195801E0,9.253637314E0,1.101051000E1
1.027495340E1,1.449499130E0,5.905604362E0,8.683923721E0,1.060130850E1
1.029305477E1,3.766701460E0,5.816013813E0,6.929557323E0,9.799633731E0
1.031115847E1,2.338902712E0,4.087568283E0,9.255428314E0,1.038468265E1
1.032926272E1,7.364621162E-1,2.203520298E0,9.566598892E0,9.844678386E0
1.034736483E1,1.696805000E0,2.217052937E0,6.188725471E0,6.789314685E0
1.036546750E1,2.550067425E0,1.941743851E0,4.173684120E0,5.262399851E0
1.038356729E1,1.453316450E0,3.200807571E-1,2.804965019E0,3.175280957E0
1.040167636E1,3.623802662E-1,-1.209441185E0,1.447653770E0,1.920877111E0
1.041977871E1,4.403874874E-1,-1.340641975E0,-1.534881592E-1,1.419443786E0
1.043788437E1,1.149934530E0,-9.477705956E-1,-1.527605057E0,2.134056170E0
1.045598861E1,1.958622694E0,-6.562414169E-1,-2.463531494E0,3.214940602E0
1.047409030E1,2.074134350E0,-8.822300434E-1,-2.909252644E0,3.680232886E0
1.049217862E1,2.031074524E0,-1.397778273E0,-3.100688457E0,3.961479109E0
1.051029873E1,1.749544024E0,-2.097406864E0,-3.464134693E0,4.411377225E0
1.052839920E1,1.414256454E0,-2.917999744E0,-4.050342083E0,5.188459773E0
1.054650381E1,1.280853271E0,-3.639786720E0,-4.962615013E0,6.286189644E0
1.056460629E1,1.783004999E0,-4.217386723E0,-6.056712151E0,7.592708322E0
1.058270938E1,2.398394108E0,-4.878303051E0,-7.244351387E0,9.057083525E0
1.060081002E1,2.316772461E0,-6.505996704E0,-6.992231369E0,9.827854663E0
1.061892147E1,1.595113158E0,-8.434767723E0,-5.550519943E0,1.022242457E1
1.063701992E1,6.162269115E-1,-9.068368912E0,-4.453956604E0,1.012189606E1
1.065512362E1,1.272644997E-1,-7.248319626E0,-5.803781033E0,9.286452925E0
1.067322665E1,1.685576439E0,-3.099686146E0,-7.089901924E0,7.919339078E0
1.069132662E1,2.406726599E0,8.875448704E-1,-3.625672340E0,4.441347626E0
1.070943338E1,1.918118596E0,1.041351795E0,4.988901138E0,5.445431762E0
1.072752584E1,1.101266026E0,1.776639223E-1,1.590083981E1,1.593992026E1
1.074563772E1,1.637555599E0,4.103565216E-1,2.196545410E1,2.203023274E1
1.076374795E1,3.393556118E0,9.536424875E-1,2.493040848E1,2.517838208E1
1.078184732E1,3.371672153E0,-4.081403017E-1,2.580606842E1,2.602859810E1
1.079994790E1,9.361970425E-1,-1.959544063E0,2.220934677E1,2.231527194E1
1.081805697E1,-2.150874138E-1,-6.531100273E-1,1.361891556E1,1.363626328E1
1.083615866E1,6.830592155E-1,3.882976532E0,5.941032410E0,7.130213372E0
1.085426132E1,1.206293941E0,7.194020271E0,2.980786324E0,7.879984762E0
1.087235006E1,9.807159901E-1,7.520655632E0,2.889004707E0,8.115935756E0
1.089047073E1,6.095880270E-1,4.285957813E0,2.521379471E0,5.009828977E0
1.090857235E1,1.026258230E0,-5.243729949E-1,3.715435982E0,3.890069090E0
1.092666299E1,1.467751026E0,-3.938179493E0,7.046669960E0,8.204822260E0
1.094476620E1,2.221729755E0,-3.742810726E0,6.599803925E0,7.905828678E0
1.096288266E1,3.170527458E0,-2.043177366E0,2.078097343E0,4.306426208E0
1.098098617E1,3.634900808E0,-1.397675276E-1,-3.130373478E0,4.799091264E0
1.099908438E1,3.558634758E0,4.367841482E-1,-6.788645744E0,7.677263365E0
1.101719210E1,2.834373713E0,1.021007299E-1,-8.994830132E0,9.431387384E0
1.103529495E1,2.198277712E0,-2.358249426E-1,-1.115775490E1,1.137468824E1
1.105339981E1,1.721207023E0,-5.739964247E-1,-1.220570278E1,1.233982196E1
1.107149581E1,1.220058560E0,-1.382057071E0,-1.270445633E1,1.283751671E1
1.108960238E1,9.649856091E-1,-2.199925661E0,-1.301511669E1,1.323495873E1
1.110771176E1,1.232262254E0,-2.512903690E0,-1.235939026E1,1.267231955E1
1.112581216E1,1.499810576E0,-2.890243530E0,-1.107211781E1,1.154100222E1
1.114391391E1,1.434238434E0,-3.129869223E0,-1.015452766E1,1.072229235E1
1.116201785E1,1.195459247E0,-3.150040865E0,-1.052072716E1,1.104706206E1
1.118011120E1,1.192429185E0,-2.684155464E0,-1.091543388E1,1.130368412E1
1.119821988E1,1.190698504E0,-2.352000713E0,-1.108262539E1,1.139185041E1
1.121633096E1,9.918373823E-1,-2.116569519E0,-1.096347713E1,1.120988130E1
1.123443301E1,7.465431690E-1,-2.208905697E0,-9.580082893E0,9.859745399E0
1.125253613E1,2.199037075E-1,-2.586894751E0,-8.100339890E0,8.506226450E0
1.127064041E1,8.815121651E-2,-2.610927582E0,-6.616145611E0,7.113233879E0
1.128874307E1,3.572126627E-1,-1.464734912E0,-3.598682404E0,3.901738624E0
1.130684677E1,2.097866535E-1,1.023974895E0,1.254582405E0,1.632945816E0
1.132493832E1,-8.351492882E-1,3.573060274E0,5.566327095E0,6.666950681E0
1.134305420E1,1.582862139E0,4.327588081E0,9.597502708E0,1.064638574E1
1.136115683E1,4.642517090E0,3.400460958E0,1.589540863E1,1.690503224E1
1.137925262E1,5.254364491E0,-1.841031075E0,2.202131653E1,2.271422733E1
1.139736181E1,4.408042908E0,-5.265982151E0,2.088834381E1,2.198827682E1
1.141546902E1,5.680847168E0,-4.122583389E0,1.492648983E1,1.649447838E1
1.143357043E1,6.242011547E0,-2.951401234E0,1.111853695E1,1.308798462E1
1.145167422E1,3.799322605E0,-4.440555573E0,9.433254242E0,1.109683160E1
1.146977795E1,7.240261436E-1,-5.774500847E0,6.385920525E0,8.639968451E0
1.148787939E1,-1.258710623E-1,-4.341331482E0,9.431390762E-1,4.444380033E0
1.150598559E1,1.643286943E0,-7.920476198E-1,-4.261217117E0,4.635267277E0
1.152407586E1,3.299536228E0,1.876958132E0,-5.895987511E0,7.012316299E0
1.154219125E1,2.942201138E0,1.922619939E0,-4.887949944E0,6.020387829E0
1.156029443E1,1.908179045E0,1.626024246E0,-4.946697235E0,5.545711465E0
1.157839294E1,1.414389729E0,1.779636383E0,-6.113186836E0,6.522166608E0
1.159649063E1,9.220283628E-1,1.930807829E0,-6.076444149E0,6.442152487E0
1.161460482E1,5.171632171E-1,1.381424904E0,-5.287040234E0,5.488951356E0
1.163270813E1,5.951326489E-1,1.406472802E0,-4.731740475E0,4.972093778E0
1.165080682E1,7.392513156E-1,1.371205211E0,-4.487404823E0,4.750105082E0
1.166891613E1,7.754942775E-1,1.161525130E0,-5.030213833E0,5.220496452E0
1.168701846E1,1.065711617E0,1.599240780E0,-5.822116852E0,6.131097533E0
1.170512024E1,9.717939496E-1,1.926821232E0,-6.218631744E0,6.582431489E0
1.172321667E1,9.919025302E-1,2.281698942E0,-5.765552998E0,6.279460332E0
1.174132730E1,1.119906545E0,2.199226379E0,-3.676283836E0,4.427849386E0
1.175943350E1,1.003079534E0,1.862092137E0,-1.709081650E0,2.719285892E0
1.177753552E1,7.851539254E-1,1.226620674E0,2.532473564E0,2.921384486E0
1.179563907E1,2.190722227E-1,-4.326116443E-1,8.342283249E0,8.356364956E0
1.181374234E1,7.729351521E-1,-2.553160906E0,1.421548080E1,1.446360791E1
1.183184558E1,2.065440178E0,-3.924674034E0,1.975843430E1,2.025005766E1
1.184994912E1,1.482467413E0,-7.048100471E0,2.331755447E1,2.440454418E1
1.186804385E1,1.104348421E0,-1.090574360E1,2.521902847E1,2.749825860E1
1.188615567E1,1.925756931E0,-1.259656334E1,2.475507736E1,2.784233832E1
1.190425964E1,3.263939857E0,-1.109090042E1,2.108781815E1,2.404906338E1
1.192236291E1,4.837770939E0,-6.305215359E0,1.430722427E1,1.636632014E1
1.194046643E1,4.025096893E0,-1.466345906E0,7.732313156E0,8.839696944E0
1.195856973E1,1.255573034E0,6.373534203E-1,2.921544075E0,3.243162470E0
1.197666958E1,9.540534019E-2,2.041962147E0,4.837226868E-2,2.044761958E0
1.199477627E1,1.697773933E-1,2.371727943E0,-2.479399681E0,3.435307931E0
1.201286416E1,1.846800089E0,1.371023417E0,-5.178071976E0,5.665933741E0
1.203098352E1,4.729067802E0,1.007134199E0,-5.277936935E0,7.157864197E0
1.204908679E1,4.848104477E0,-1.333947182E0,-3.279032230E0,6.002964640E0
1.206719034E1,3.027631283E0,-3.145192862E0,-7.636098862E-1,4.431917122E0
1.208529300E1,2.128106833E0,-2.559220076E0,-1.613281250E0,3.698800140E0
1.210339746E1,1.717510104E0,-1.285053253E0,-5.737751484E0,6.125601596E0
1.212150012E1,1.531873465E0,-3.913338184E-1,-9.914911270E0,1.004018147E1
1.213960391E1,1.550987244E0,2.964258194E-2,-1.302219009E1,1.311426227E1
1.215770230E1,1.056539893E0,-8.591387272E-1,-1.312289047E1,1.319335629E1
1.217581070E1,7.127512693E-1,-2.377683878E0,-1.134272003E1,1.161114519E1
1.219391418E1,1.276003718E0,-3.086949348E0,-1.006865215E1,1.060826084E1
1.221200549E1,2.457426786E0,-3.036538124E0,-9.909428596E0,1.065158605E1
1.223011962E1,3.533651114E0,-2.652190685E0,-9.445254326E0,1.042754213E1
1.224822564E1,3.602049112E0,-2.609758854E0,-9.944331169E0,1.089382033E1
1.226632748E1,3.124703407E0,-2.781772614E0,-1.064796543E1,1.144033208E1
1.228443075E1,2.578012943E0,-2.858699322E0,-1.147465992E1,1.210314558E1
1.230253512E1,2.758561134E0,-2.702717304E0,-1.161304474E1,1.223834746E1
1.232063812E1,3.018021107E0,-2.318140984E0,-1.102992249E1,1.166796551E1
1.233874130E1,2.772077560E0,-2.327332020E0,-1.015828419E1,1.078385951E1
1.235683026E1,2.308466673E0,-2.537790298E0,-8.634741783E0,9.291295046E0
1.237494812E1,1.881328344E0,-2.995344400E0,-7.833774090E0,8.595318546E0
1.239305139E1,1.860425353E0,-3.188707590E0,-6.488069534E0,7.464856654E0
1.241115493E1,1.545636177E0,-2.316704988E0,-6.611992359E0,7.174577071E0
1.242925818E1,3.248285055E-1,-5.843260288E-1,-5.975293636E0,6.012577193E0
1.244736221E1,-2.798295498E0,1.439112186E0,-1.152362823E-1,3.148774520E0
1.246546478E1,-5.234220028E0,4.682572842E0,5.274312019E0,8.783047022E0
1.248356942E1,-1.885572553E0,9.847525597E0,9.540840149E0,1.384040371E1
1.250165884E1,2.793492794E0,7.939133644E0,1.803954697E1,1.990624776E1
1.251976526E1,4.126579285E0,-4.432131767E0,3.118154907E1,3.176415356E1
1.253787393E1,3.812437057E0,-1.168524551E1,3.777081299E1,3.972044754E1
1.255598181E1,4.483267784E0,-9.249761581E0,3.154478455E1,3.317726950E1
1.257408444E1,3.672493458E0,-5.636920929E0,1.961968613E1,2.074112267E1
1.259219006E1,2.228474140E0,-2.759517670E0,5.810857773E0,6.807870652E0
1.261028817E1,1.027382851E0,-1.997607708E0,-2.681479454E0,3.498040043E0
1.262839587E1,9.466848373E-1,-1.893221617E0,-5.423013687E0,5.821475562E0
1.264649920E1,2.930026531E0,-5.203124285E-1,-7.044203281E0,7.646998128E0
1.266460006E1,5.277436733E0,1.483100653E0,-8.931673050E0,1.047977621E1
1.268270889E1,6.054643631E0,1.955803394E0,-9.541468620E0,1.146836954E1
1.270080941E1,4.903881073E0,1.316464186E0,-1.029758263E1,1.148134728E1
1.271891812E1,3.381394386E0,6.573424339E-1,-1.096266174E1,1.149112177E1
1.273701626E1,2.214672089E0,3.857800961E-1,-1.161031532E1,1.182594692E1
1.275511953E1,1.773388028E0,3.264391422E-1,-1.104696274E1,1.119316101E1
1.277322323E1,1.611329079E0,6.634116173E-2,-1.017818451E1,1.030515514E1
1.279132748E1,1.244079232E0,-3.693681955E-1,-8.165577888E0,8.268060731E0
1.280942684E1,9.754222631E-1,-5.859736204E-1,-6.709573746E0,6.805379749E0
1.282753622E1,1.117153168E0,-5.621669292E-1,-6.031121254E0,6.159422573E0
1.284563674E1,1.861563444E0,-6.773630381E-1,-3.233209610E0,3.791817971E0
1.286374130E1,1.551160455E0,-1.527436972E0,1.201902390E0,2.486711043E0
1.288184366E1,3.057003021E-2,-3.339437246E0,6.283172607E0,7.115548725E0
1.289994686E1,-8.960938454E-1,-3.844561100E0,9.933491707E0,1.068914832E1
1.291805038E1,-1.953330040E-1,-2.048218727E0,1.251633835E1,1.268432421E1
1.293614761E1,4.634773731E-1,-1.958461642E0,1.735372162E1,1.747003255E1
1.295425406E1,-1.186090708E-1,-6.944312096E0,2.488156509E1,2.583272769E1
1.297236343E1,4.124261141E-1,-1.121909046E1,3.010250473E1,3.212785205E1
1.299045932E1,3.654288530E0,-1.034778023E1,2.935107613E1,3.133553973E1
1.300856552E1,5.939705372E0,-4.079507828E0,2.204522514E1,2.319298247E1
1.302667367E1,4.569998741E0,7.545101643E-1,1.304222679E1,1.384029818E1
1.304477292E1,1.986560345E0,3.802938223E0,6.061150551E0,7.426055961E0
1.306287899E1,-2.199938297E-1,4.238930702E0,1.521401405E0,4.509056777E0
1.308098233E1,-4.637808800E-1,3.423432827E0,-6.690435410E-1,3.518892480E0
1.309908041E1,1.221452236E0,2.753659725E0,-3.200550556E0,4.395237344E0
1.311718667E1,2.122870922E0,-2.954552174E-1,-1.192246914E0,2.452616448E0
1.313528769E1,3.846343756E0,-8.653156757E-1,4.803428650E-1,3.971632004E0
1.315339554E1,4.347181320E0,-1.648874283E-1,-2.099541187E0,4.830449926E0
1.317149826E1,4.834161997E-1,-2.867166996E0,-7.442688465E0,7.990491186E0
1.318960171E1,-2.036379814E0,-4.133587360E0,-1.172569084E1,1.259861949E1
1.320769467E1,-1.246999264E0,-2.553941488E0,-1.421341515E1,1.449478508E1
1.322580948E1,1.557525396E-1,-1.205655575E0,-1.686759949E1,1.691135053E1
1.324391146E1,2.241015434E-1,-2.342670918E0,-1.651140594E1,1.667827493E1
1.326201534E1,-1.470500231E-1,-4.668135643E0,-1.443939781E1,1.517594555E1
1.328010708E1,-4.770398140E-1,-6.602425098E0,-1.251001167E1,1.415344397E1
1.329821994E1,-9.047015905E-1,-7.629719257E0,-1.146008492E1,1.379726956E1
1.331632833E1,-7.055752277E-1,-7.265679359E0,-1.134788799E1,1.349305358E1
1.333442788E1,5.205936432E-1,-5.445943356E0,-1.254922485E1,1.368986345E1
1.335253299E1,1.949606419E0,-3.323794127E0,-1.309358597E1,1.364883021E1
1.337063211E1,2.615820408E0,-2.517251968E0,-1.167386436E1,1.222530912E1
1.338873898E1,2.883656502E0,-2.061228037E0,-9.756413460E0,1.038035353E1
1.340684274E1,2.651005268E0,-2.533699036E0,-7.858576775E0,8.672063691E0
1.342493417E1,2.878095150E0,-2.028055429E0,-7.337265015E0,8.138298250E0
1.344304556E1,3.122592211E0,-1.182909250E0,-8.749053001E0,9.364602759E0
1.346115268E1,2.628463745E0,-2.113780499E0,-7.616934776E0,8.330341232E0
1.347924630E1,1.874708891E0,-3.944670439E0,-2.988242149E0,5.291932486E0
1.349735537E1,1.165675163E0,-4.524676323E0,3.689813614E0,5.953672725E0
1.351546841E1,-5.933146477E-1,-1.495703578E0,6.430152893E0,6.628424978E0
1.353356643E1,1.778347492E-1,6.736453056E0,3.319293976E0,7.511933005E0
1.355166714E1,6.256753922E0,8.491005898E0,7.563789368E0,1.297902386E1
1.356976840E1,8.129245758E0,-4.788014412E0,2.709489632E1,2.869047098E1
1.358787777E1,5.160009861E0,-1.594840813E1,4.169583130E1,4.493906732E1
1.360597988E1,6.310786724E0,-1.233202457E1,3.655565262E1,3.909246216E1
1.362408340E1,6.515771389E0,-5.357197762E0,2.176927567E1,2.334643886E1
1.364218508E1,3.886163712E0,-5.022010803E-1,6.746688843E0,7.802069255E0
1.366029269E1,1.892146349E0,1.822441816E0,-2.208178520E0,3.431845620E0
1.367839376E1,1.697081208E0,2.602631807E0,-2.949596405E0,4.284144711E0
1.369649838E1,1.894074440E0,2.174065113E0,-1.755794048E0,3.375927997E0
1.371459915E1,2.335911036E0,1.872064710E0,-3.882120132E0,4.902240647E0
1.373270498E1,2.691143274E0,2.016065359E0,-6.796706200E0,7.583006450E0
1.375080752E1,1.673300982E0,1.103510141E0,-9.775918007E0,9.979290741E0
1.376889541E1,5.698000193E-1,-1.539450884E-1,-1.206334019E1,1.207777081E1
1.378701394E1,-7.891392708E-2,-8.255821466E-1,-1.252883625E1,1.255625546E1
1.380511880E1,4.158537388E-1,-7.074658871E-1,-1.098934460E1,1.101994269E1
1.382322085E1,8.420605659E-1,-3.458424807E-1,-9.695414543E0,9.738056078E0
1.384132425E1,1.035184622E0,4.983985424E-2,-9.115912437E0,9.174636275E0
1.385942794E1,1.294452906E0,3.363958597E-1,-8.729003906E0,8.830870834E0
1.387753238E1,1.238509417E0,4.826350212E-1,-8.091402054E0,8.199855446E0
1.389563461E1,1.026145816E0,5.328482389E-1,-6.540617943E0,6.642031734E0
1.391373819E1,7.643374205E-1,1.190842390E0,-4.894927502E0,5.095354015E0
1.393184121E1,5.433048010E-1,2.268743515E0,-3.388479233E0,4.113899459E0
1.394994131E1,3.414123058E-1,2.983709335E0,-9.619436264E-1,3.153477335E0
1.396803646E1,3.708688021E-1,2.709344864E0,5.320760727E0,5.982356390E0
1.398615286E1,5.513723493E-1,4.263957739E-1,1.326167774E1,1.327998198E1
1.400425381E1,1.822663546E0,-3.219558954E0,1.335441685E1,1.385742081E1
1.402235977E1,9.932416916E0,-8.433609009E0,2.321934509E1,2.662548879E1
1.404046206E1,1.717526245E1,-1.262285328E1,4.978206635E1,5.415330271E1
1.405856558E1,1.453218842E1,-1.785110092E1,4.298195267E1,4.875750772E1
1.407666757E1,9.555346489E0,-1.682684708E1,2.233184052E1,2.954925599E1
1.409477487E1,7.939567566E0,-8.124308586E0,1.101703453E1,1.582454337E1
1.411287020E1,6.964987278E0,-3.244355679E0,8.280231476E0,1.129597826E1
1.413097909E1,7.156638622E0,2.371057987E0,5.435758591E0,9.294453389E0
1.414907089E1,4.179874420E0,1.761724353E0,1.917352676E0,4.924557254E0
1.416719009E1,2.505555391E0,1.653168440E0,-2.623325825E0,3.986553912E0
1.418528915E1,1.378227115E0,-2.231019735E-1,-5.797506809E0,5.963251602E0
1.420339273E1,1.282407045E0,-2.447169304E0,-5.784152985E0,6.410119436E0
1.422149630E1,2.316770315E0,-3.548953295E0,-6.285152912E0,7.580609561E0
1.423960098E1,3.332328558E0,-3.134981394E0,-7.994033813E0,9.210705650E0
1.425770291E1,3.535373926E0,-2.523272038E0,-1.103726959E1,1.186115891E1
1.427580374E1,2.692890644E0,-3.184929609E0,-1.360650444E1,1.423138784E1
1.429391256E1,2.129419804E0,-4.436566353E0,-1.368752003E1,1.454530007E1
1.431200283E1,2.376271248E0,-5.343081474E0,-1.235638237E1,1.367023665E1
1.433010806E1,2.479622841E0,-5.368098259E0,-1.197128677E1,1.335203038E1
1.434822402E1,2.131274700E0,-4.982829571E0,-1.368892670E1,1.472269121E1
1.436632357E1,1.913343906E0,-4.097202301E0,-1.510716724E1,1.576941514E1
1.438442733E1,2.509653330E0,-3.578622818E0,-1.506724358E1,1.568842663E1
1.440252627E1,2.697491169E0,-3.637638569E0,-1.420676994E1,1.491110946E1
1.442063400E1,2.553471565E0,-4.025495529E0,-1.325185013E1,1.408319435E1
1.443873733E1,2.568376064E0,-3.625954628E0,-1.311542511E1,1.384768856E1
1.445682742E1,2.911694527E0,-2.943081141E0,-1.321944904E1,1.385256383E1
1.447494509E1,3.175662756E0,-2.541983604E0,-1.273339844E1,1.336734642E1
1.449304757E1,2.942429781E0,-2.898491383E0,-1.148448563E1,1.220461205E1
1.451115121E1,2.658087015E0,-3.451163769E0,-9.792609215E0,1.071779610E1
1.452924960E1,2.779632568E0,-3.478985071E0,-7.951344967E0,9.113373751E0
1.454734643E1,3.157706022E0,-3.316287518E0,-6.104791641E0,7.631340066E0
1.456545886E1,3.348102808E0,-2.405073643E0,-2.889123917E0,5.034005229E0
1.458356396E1,3.880677223E-1,4.211091995E-2,9.658479691E-1,1.041744780E0
1.460166845E1,-2.728981972E0,4.571719170E0,2.831064224E0,6.030164460E0
1.461977166E1,5.384023666E0,9.174056053E0,5.974826813E0,1.220039224E1
1.463787484E1,1.278586864E1,-1.680393219E-1,2.297111511E1,2.629027964E1
1.465597845E1,1.050096130E1,-1.452268505E1,4.444919586E1,4.792608457E1
1.467408218E1,8.513430595E0,-1.438946056E1,4.447201920E1,4.751100470E1
1.469218475E1,8.489028931E0,-7.501820087E0,3.023193359E1,3.228483740E1
1.471027719E1,6.079629421E0,-2.367331982E0,1.428687859E1,1.570608335E1
1.472839200E1,2.585972309E0,-1.113005877E0,2.850344658E0,4.006307469E0
1.474649545E1,2.127650976E-1,-2.190633059E0,-1.852022171E0,2.876478456E0
1.476459881E1,6.453149319E-1,-1.458992004E0,-3.051431179E0,3.443300927E0
1.478270138E1,2.433078527E0,3.120071888E-1,-4.125854015E0,4.799988642E0
1.480080667E1,3.432562351E0,1.498438358E0,-5.898649693E0,6.987264844E0
1.481890912E1,3.011432648E0,1.427892685E0,-7.819326878E0,8.499969231E0
1.483701257E1,1.951281548E0,9.306483269E-1,-9.988050461E0,1.021933256E1
1.485511615E1,1.601338625E0,8.990713358E-1,-1.187438297E1,1.201555599E1
1.487321957E1,1.271823287E0,1.297340989E0,-1.289422321E1,1.302158287E1
1.489132293E1,1.182005167E0,1.934301972E0,-1.159623909E1,1.181572771E1
1.490941687E1,1.890672445E-1,1.654423714E0,-9.766904831E0,9.907840038E0
1.492752823E1,-1.532628655E0,1.024797320E0,-9.465999603E0,9.643874151E0
1.494563464E1,-1.753589869E0,1.330702186E0,-1.015696907E1,1.039277953E1
1.496373611E1,-9.505523443E-1,1.674123645E0,-9.364118576E0,9.559966341E0
1.498183935E1,-6.520501375E-1,3.094686866E-1,-6.434295654E0,6.474650633E0
1.499994476E1,-1.074853063E0,-1.259719849E0,-2.687736988E0,3.156918327E0
1.501804699E1,-1.015911579E0,-1.377543092E0,4.108085632E-1,1.760245716E0
1.503614996E1,-1.682133675E-1,3.308572173E-1,1.961894035E0,1.996694879E0
1.505425436E1,7.682894468E-1,1.744541645E0,4.309297562E0,4.712084433E0
1.507235705E1,1.980228186E0,2.409652710E0,1.299887466E1,1.336781479E1
1.509046060E1,8.180357218E-1,-5.315424204E-1,2.310390854E1,2.312449588E1
1.510855386E1,1.103387117E0,-4.567294121E0,2.823813629E1,2.862638608E1
1.512666345E1,3.910830259E0,-9.055823326E0,3.179832077E1,3.329317848E1
1.514477090E1,4.912126064E0,-1.620432091E1,3.291793823E1,3.701755875E1
1.516287381E1,8.701903343E0,-2.121946335E1,3.285565567E1,4.006847709E1
1.518097689E1,1.328511906E1,-2.205051041E1,2.773554230E1,3.784150769E1
1.519908258E1,1.429763317E1,-1.631221581E1,1.475030422E1,2.623132047E1
1.521718472E1,1.271416187E1,-6.367687225E0,2.844308853E0,1.450129117E1
1.523528796E1,8.409289360E0,5.927627087E-1,-3.708399773E0,9.209763517E0
1.525338104E1,4.590769291E0,3.684726954E0,-6.730475426E0,8.941570044E0
1.527149328E1,3.171203136E0,4.835861206E0,-8.426960945E0,1.022035976E1
1.528959512E1,3.033776760E0,5.329822540E0,-1.103022480E1,1.262048608E1
1.530770178E1,3.551884174E0,4.544768333E0,-1.120841789E1,1.260553180E1
1.532580505E1,4.385563850E0,2.436047316E0,-9.648916245E0,1.087515892E1
1.534390863E1,3.564849377E0,-4.290926456E-1,-8.137938499E0,8.894847643E0
1.536201205E1,1.223389149E0,-3.710450411E0,-9.087160110E0,9.891440852E0
1.538011587E1,-4.958438873E-1,-5.165937901E0,-1.194897938E1,1.302731299E1
1.539821890E1,-1.080195904E0,-5.166416168E0,-1.528449440E1,1.617017156E1
1.541632244E1,-9.164810181E-1,-5.237387657E0,-1.596341896E1,1.682560287E1
1.543442587E1,-1.779093742E-1,-6.056252003E0,-1.420666409E1,1.544471251E1
1.545252899E1,7.546019554E-1,-6.700126648E0,-1.128125191E1,1.314259357E1
1.547063122E1,1.563641310E0,-6.628051758E0,-8.578777313E0,1.095314861E1
1.548873282E1,2.519226074E0,-5.712139606E0,-7.615275383E0,9.847205596E0
1.550684045E1,4.075173855E0,-3.872406960E0,-8.722113609E0,1.037679350E1
1.552494278E1,5.242919922E0,-1.998350620E0,-1.003750896E1,1.149926957E1
1.554304571E1,5.174729347E0,-1.454555273E0,-1.085433197E1,1.211239354E1
1.556114093E1,4.452528954E0,-1.836806059E0,-1.049405861E1,1.154660715E1
1.557924286E1,3.533235073E0,-2.670391798E0,-8.839497566E0,9.886933785E0
1.559735351E1,2.908556938E0,-2.883508205E0,-7.607485294E0,8.639916408E0
1.561545825E1,2.869074583E0,-2.533378124E0,-7.525167465E0,8.442614468E0
1.563356524E1,3.376453161E0,-1.972797155E0,-7.835524082E0,8.757157199E0
1.565166687E1,3.298018932E0,-2.040740728E0,-6.309697151E0,7.406337134E0
1.566976837E1,1.887639761E0,-2.601101398E0,-1.898600578E0,3.732773300E0
1.568787521E1,-1.062326193E0,-1.298902035E0,2.249502182E0,2.806411143E0
1.570597720E1,-9.522827864E-1,3.779649734E0,3.203950882E0,5.045581817E0
1.572408072E1,6.123722076E0,8.707597733E0,6.171398163E0,1.230481148E1
1.574217205E1,1.164760399E1,2.462814093E0,1.952402496E1,2.286743717E1
1.576028793E1,1.337199306E1,-8.657181740E0,3.470989609E1,3.819075648E1
1.577839102E1,1.187844181E1,-1.050586414E1,3.438882446E1,3.786900856E1
1.579649426E1,1.031724072E1,-5.299047947E0,2.347480011E1,2.618380426E1
1.581459777E1,7.522044182E0,-9.181041718E-1,1.004491711E1,1.258270335E1
1.583270111E1,3.201420784E0,3.339564800E-2,1.962788582E0,3.755362742E0
1.585080484E1,4.978849888E-1,-4.108605385E-1,-5.649461746E-1,8.578228397E-1
1.586890344E1,5.972635746E-2,7.581603527E-2,-6.700696945E-1,6.769850105E-1
1.588701165E1,-2.167606354E-1,-1.608793736E-1,-1.486939430E0,1.511243268E0
1.590511340E1,-5.377808809E-1,-1.428965926E-1,-4.183329582E0,4.220174653E0
1.592321924E1,-1.428964138E-1,9.457795620E-1,-7.276017189E0,7.338620068E0
1.594132815E1,-2.947623730E-1,1.184496164E0,-9.634481430E0,9.711495685E0
1.595942358E1,-1.138469219E0,8.055568933E-1,-1.063747120E1,1.072850538E1
1.597753054E1,-2.220515251E0,8.939882517E-1,-1.081874943E1,1.108039901E1
1.599563141E1,-2.726150274E0,1.177634954E0,-9.952374458E0,1.038597500E1
1.601373605E1,-2.750244856E0,1.534777284E0,-9.272421837E0,9.792711310E0
1.603183902E1,-2.726788998E0,1.755041242E0,-9.498982430E0,1.003724141E1
1.604994345E1,-2.647387028E0,1.543516755E0,-9.465244293E0,9.948967362E0
1.606804574E1,-2.018463612E0,1.395699859E0,-8.264845848E0,8.621476111E0
1.608614956E1,-1.249157667E0,1.151294231E0,-5.596874714E0,5.849006740E0
1.610425283E1,-9.782708287E-1,3.553974628E-1,-4.865465164E-1,1.148933716E0
1.612235733E1,-1.219287395E0,-6.389529705E-1,5.576818466E0,5.744199409E0
1.614045938E1,-1.410703659E0,-2.216076851E0,1.043475151E1,1.076034946E1
1.615856308E1,1.305921793E0,-3.037222862E0,1.332607269E1,1.373005345E1
1.617666909E1,4.108176708E0,-1.194036484E1,2.860530090E1,3.126839727E1
1.619476791E1,5.432738781E0,-2.178131485E1,4.394862366E1,4.934999340E1
1.621287612E1,9.551097870E0,-2.405916023E1,4.427246475E1,5.128467409E1
1.623097671E1,1.287073803E1,-1.827961159E1,3.083142853E1,3.808381654E1
1.624907608E1,1.165572453E1,-1.051097679E1,1.434399509E1,2.126233154E1
1.626718173E1,9.050651550E0,-3.687245131E0,3.687287331E0,1.044538932E1
1.628529019E1,6.908444881E0,1.771139622E0,-2.440782070E0,7.537968118E0
1.630339047E1,4.974698067E0,3.355205774E0,-5.778143883E0,8.330184474E0
1.632147555E1,4.646272659E0,3.260138512E0,-8.064003944E0,9.861263223E0
1.633959848E1,5.461730003E0,1.392246246E0,-8.150005341E0,9.909158960E0
1.635770053E1,5.732572556E0,-1.320048690E0,-5.408823967E0,7.991263564E0
1.637579117E1,5.734106064E0,-2.050818443E0,-3.904747963E0,7.234147171E0
1.639390585E1,5.812475681E0,-1.599097252E0,-4.828670979E0,7.723862310E0
1.641201498E1,5.429965019E0,-1.437530756E0,-6.722872257E0,8.760595081E0
1.643011447E1,4.017244339E0,-2.164325237E0,-8.819134712E0,9.929737805E0
1.644821670E1,2.732779741E0,-2.779453278E0,-1.050018311E1,1.120032548E1
1.646632260E1,1.462923050E0,-3.071110249E0,-1.150984573E1,1.200201695E1
1.648442532E1,2.729048729E-1,-3.169307470E0,-1.210353374E1,1.251457215E1
1.650252932E1,-2.819423676E-1,-3.059554577E0,-1.212852478E1,1.251165373E1
1.652063150E1,2.836420536E-1,-2.676021338E0,-1.169182587E1,1.199751371E1
1.653873520E1,1.174125195E0,-2.526417255E0,-1.078613663E1,1.114011209E1
1.655683926E1,1.265058279E0,-3.167746067E0,-9.913208961E0,1.048363961E1
1.657494174E1,7.385663986E-1,-4.110752583E0,-9.370800972E0,1.025941899E1
1.659304507E1,5.436141491E-1,-4.223794937E0,-1.006014919E1,1.092440213E1
1.661114883E1,8.327295780E-1,-3.606736660E0,-1.090627670E1,1.151732866E1
1.662925326E1,1.718744874E0,-2.385661602E0,-1.118737984E1,1.156732177E1
1.664735580E1,2.290264368E0,-1.706944942E0,-1.055037498E1,1.093020513E1
1.666545425E1,2.422629833E0,-1.528016806E0,-9.621386528E0,1.003867767E1
1.668356265E1,1.917751551E0,-1.768603563E0,-9.256976128E0,9.617553566E0
1.670166226E1,1.225441575E0,-2.425567150E0,-8.749503136E0,9.161816860E0
1.671977456E1,1.153934360E0,-2.801224470E0,-7.572672844E0,8.156212175E0
1.673787258E1,1.295032501E0,-3.225367308E0,-4.915544510E0,6.020189472E0
1.675597653E1,3.779693842E-1,-3.013700962E0,7.233238220E-1,3.122251062E0
1.677408096E1,-2.426838398E0,-6.181001663E-2,4.268763542E0,4.910774610E0
1.679218319E1,1.497886658E0,4.054049015E0,4.163603783E0,6.001214403E0
1.681028677E1,8.731994629E0,4.219887733E0,1.114595222E1,1.477455359E1
1.682838912E1,1.178915119E1,-7.117346764E0,2.679097939E1,3.012303582E1
1.684649588E1,1.171076107E1,-1.466477203E1,3.862026978E1,4.293859221E1
1.686459683E1,1.032606030E1,-1.070561028E1,3.310827637E1,3.629594435E1
1.688269790E1,7.982541561E0,-4.668148041E0,1.650699615E1,1.892071611E1
1.690080703E1,4.932182312E0,-1.888654232E-1,1.978281021E0,5.317488910E0
1.691890957E1,3.066990852E0,1.326169491E0,-3.379985332E0,4.752836969E0
1.693701058E1,2.886035919E0,1.721261263E0,-2.502170563E0,4.189606328E0
1.695511319E1,3.781529427E0,2.309620857E0,-9.809236526E-1,4.538339401E0
1.697321884E1,4.283566475E0,2.468657017E0,-1.207360268E0,5.089295435E0
1.699132223E1,3.913422585E0,2.163316727E0,-1.928166389E0,4.869562733E0
1.700942105E1,3.240492344E0,1.770408154E0,-2.935576439E0,4.717281494E0
1.702752517E1,2.136220217E0,1.137458563E0,-4.802655697E0,5.377987592E0
1.704563443E1,2.740616798E-1,6.826007366E-2,-6.944001198E0,6.949742576E0
1.706373599E1,-1.634711742E0,-4.602593780E-1,-9.303689957E0,9.457418675E0
1.708183871E1,-2.728584766E0,-2.158963680E-1,-1.083450699E1,1.117489721E1
1.709994186E1,-2.451444626E0,6.005899310E-1,-1.063090897E1,1.092641361E1
1.711804532E1,-1.957446337E0,1.424956918E0,-9.296241760E0,9.606362956E0
1.713614999E1,-2.219554901E0,1.372312546E0,-7.528507233E0,7.967941192E0
1.715423800E1,-2.115035772E0,1.072386861E0,-5.878790855E0,6.339051334E0
1.717235849E1,-1.583142757E0,1.112858772E0,-4.638480186E0,5.025962005E0
1.719044760E1,-8.156777620E-1,1.490032911E0,-3.185635567E0,3.610235761E0
1.720856375E1,-2.186626196E-1,1.050793767E0,3.561630249E-1,1.130854978E0
1.722666732E1,-1.220241904E0,-8.431869745E-1,5.881190300E0,6.065340380E0
1.724476840E1,-2.795133591E0,-1.934258461E0,8.176378250E0,8.854789036E0
1.726287295E1,-3.140875340E0,-1.267887712E0,5.807024002E0,6.722660553E0
1.728097305E1,-1.755042076E-1,-9.108552933E-1,2.316608429E0,2.495422550E0
1.729907577E1,6.257614136E0,-1.378065109E0,3.417299271E0,7.261868384E0
1.731718356E1,9.866369247E0,-9.890637398E0,1.403587723E1,1.980342899E1
1.733528579E1,1.260705662E1,-1.995761108E1,3.162524414E1,3.946390989E1
1.735337979E1,1.707093239E1,-2.092927933E1,4.087824249E1,4.899471579E1
1.737149374E1,1.751893425E1,-1.435295105E1,2.956079483E1,3.723923807E1
1.738959732E1,1.479869652E1,-7.208674908E0,1.197517109E1,2.035610806E1
1.740768789E1,9.095065117E0,-2.400947094E0,-6.831169128E-1,9.431405258E0
1.742580398E1,4.829871178E0,-7.474648952E-1,-3.176020145E0,5.828675950E0
1.744391061E1,3.561907291E0,-1.552806497E-1,-2.380504608E-1,3.573228744E0
1.746201114E1,3.178862095E0,3.764044642E-1,9.686822891E-1,3.344426695E0
1.748011490E1,2.933697701E0,2.976642847E-1,1.793432236E-1,2.954208899E0
1.749821914E1,3.138329506E0,3.773096800E-1,-1.996705532E0,3.738757503E0
1.751632138E1,3.382952690E0,2.870142460E-1,-4.115554810E0,5.335216722E0
1.753442404E1,2.730981112E0,-4.420896173E-1,-5.093548775E0,5.796373020E0
1.755252914E1,1.106309414E0,-1.328794718E0,-5.756924629E0,6.010973058E0
1.757063266E1,-9.512424469E-2,-1.970675468E0,-6.130274773E0,6.439944038E0
1.758873574E1,-1.282196522E0,-2.119347334E0,-7.867134571E0,8.247876539E0
1.760683908E1,-2.137471199E0,-2.193831921E0,-1.060992241E1,1.104319406E1
1.762494247E1,-1.667824745E0,-1.556465626E0,-1.260296726E1,1.280777141E1
1.764304702E1,-3.164870739E-1,-8.732330799E-1,-1.239576149E1,1.243051097E1
1.766114468E1,9.525320530E-1,-1.168668985E0,-1.068215466E1,1.078802728E1
1.767925283E1,9.812736511E-1,-2.512445211E0,-9.763035774E0,1.012877813E1
1.769735104E1,6.430113316E-1,-2.989928007E0,-1.061595917E1,1.104770212E1
1.771546090E1,7.226243019E-1,-2.433711767E0,-1.200995064E1,1.227534330E1
1.773356344E1,1.422951698E0,-1.583275676E0,-1.253219414E1,1.271170497E1
1.775166446E1,2.521135092E0,-6.388509274E-1,-1.173995972E1,1.202459591E1
1.776976724E1,2.961529732E0,-7.060351372E-1,-9.322697639E0,9.807233822E0
1.778787686E1,2.668497562E0,-1.483322263E0,-7.476564407E0,8.075898681E0
1.780597842E1,2.296128273E0,-2.225158691E0,-6.969955444E0,7.668364568E0
1.782408090E1,2.121966362E0,-2.488150358E0,-7.712726593E0,8.377337581E0
1.784218423E1,2.043705463E0,-2.086106062E0,-8.053957939E0,8.567077040E0
1.786028903E1,1.892250657E0,-1.999486446E0,-3.185895920E0,4.210521513E0
1.787839126E1,-1.357707262E0,-2.161055088E0,4.316775322E0,5.014785866E0
1.789649087E1,-4.206773281E0,1.324762821E0,4.913485527E0,6.602596307E0
1.791459658E1,3.486030102E-1,8.590882301E0,4.240788460E0,9.586921797E0
1.793270443E1,3.454768419E0,4.907886982E0,1.621526337E1,1.729038882E1
1.795080508E1,1.904664874E0,-7.891743183E0,3.038433456E1,3.145020104E1
1.796891061E1,1.387952566E0,-1.260328770E1,3.515056610E1,3.736752026E1
1.798701211E1,1.950371504E0,-9.139755249E0,2.698118019E1,2.855386418E1
1.800511679E1,2.099567890E0,-4.732161522E0,1.391736698E1,1.484906198E1
1.802321939E1,1.268411636E0,-1.356060505E0,2.414301872E0,3.045754702E0
1.804131314E1,2.427268028E-1,-9.639497995E-1,-2.774568558E0,2.947260796E0
1.805942324E1,6.011762619E-1,-2.072885752E0,-2.606736183E0,3.384278618E0
1.807753384E1,1.973764658E0,-2.196568489E0,-1.999253750E0,3.566185022E0
1.809563296E1,4.085432529E0,-6.908810139E-1,-2.568276405E0,4.874845559E0
1.811373648E1,5.697391987E0,8.369696140E-1,-4.021416664E0,7.023715938E0
1.813184060E1,5.977672577E0,1.407860518E0,-5.461682796E0,8.218553379E0
1.814994210E1,4.673781872E0,8.333349228E-2,-6.702854156E0,8.171868532E0
1.816804879E1,3.339419365E0,-1.725422740E0,-6.927463055E0,7.881532192E0
1.818615194E1,2.698011160E0,-2.742259979E0,-6.618243217E0,7.655089634E0
1.820425406E1,2.725347281E0,-2.528342247E0,-6.239089012E0,7.262662323E0
1.822235879E1,3.073531866E0,-1.471473455E0,-6.790847778E0,7.597857975E0
1.824045797E1,3.299295425E0,1.012587547E-2,-8.231038094E0,8.867662653E0
1.825856482E1,2.893241882E0,7.394454479E-1,-9.682907104E0,1.013293236E1
1.827666442E1,2.182874203E0,6.155631542E-1,-1.043084908E1,1.067457120E1
1.829475934E1,1.906208515E0,9.442949295E-2,-9.799003601E0,9.983136752E0
1.831287576E1,1.788468599E0,-4.218859673E-1,-7.930564880E0,8.140667480E0
1.833097888E1,1.662713766E0,-8.402355909E-1,-4.909214973E0,5.250809897E0
1.834907046E1,5.529458523E-1,-1.109301090E0,-2.633917809E0,2.910982832E0
1.836717987E1,-1.464018345E0,-1.375111461E0,8.455018997E-1,2.179255539E0
1.838529016E1,-4.620154381E0,-1.706465364E0,7.245531082E0,8.761025693E0
1.840339270E1,-4.712649345E0,-3.938244343E0,2.048416328E1,2.138503631E1
1.842149627E1,-3.862402439E0,-1.087600136E1,4.104945374E1,4.264109767E1
1.843959979E1,-3.608482599E0,-1.665072632E1,4.771432495E1,5.066482645E1
1.845770324E1,-2.153824568E0,-1.895168304E1,4.537547302E1,4.922132467E1
1.847580679E1,2.737690926E0,-1.496918392E1,3.499928284E1,3.816439726E1
1.849391006E1,7.039834023E0,-6.163196564E0,1.568865776E1,1.826686172E1
1.851200967E1,9.627902985E0,4.561030865E0,2.073278427E-1,1.065563247E1
1.853011782E1,9.366897583E0,9.056675911E0,-7.209907532E0,1.489110189E1
1.854822082E1,8.138170242E0,6.878794670E0,-1.004806137E1,1.464619979E1
1.856631277E1,8.296684265E0,4.446411133E0,-1.117479706E1,1.461101061E1
1.858441635E1,7.381810665E0,-1.117456436E0,-6.641634464E0,9.992554525E0
1.860253234E1,5.925670624E0,-5.343650341E0,-4.362654686E0,9.094005015E0
1.862063003E1,4.748369217E0,-5.514272690E0,-5.749356270E0,9.274120499E0
1.863872696E1,4.206737041E0,-4.004161358E0,-8.110876083E0,9.975783456E0
1.865684195E1,3.081800222E0,-4.823291779E0,-9.794369698E0,1.134421941E1
1.867494522E1,7.161746025E-1,-7.872008324E0,-9.762303352E0,1.256120965E1
1.869304873E1,-9.479248524E-1,-8.754539490E0,-9.271691322E0,1.278689889E1
1.871115100E1,-1.439668417E0,-8.448377609E0,-9.706271172E0,1.294833694E1
1.872925747E1,-1.334508419E0,-7.596683502E0,-1.082020187E1,1.328786219E1
1.874735595E1,-3.095149994E-3,-5.691117287E0,-1.147626686E1,1.280989956E1
1.876546270E1,5.319290161E-1,-5.734054565E0,-1.036221695E1,1.185486695E1
1.878355374E1,5.007777214E-1,-7.026565552E0,-8.581289291E0,1.110233884E1
1.880166436E1,5.779058933E-1,-7.702617645E0,-7.224809170E0,1.057649098E1
1.881976333E1,1.545259476E0,-7.010471344E0,-6.785430908E0,9.878087260E0
1.883787542E1,2.551761150E0,-5.986418724E0,-7.019684792E0,9.572077553E0
1.885598068E1,3.954767942E0,-4.324049950E0,-7.923158646E0,9.854645624E0
1.887408328E1,4.663044930E0,-2.981455088E0,-8.549695015E0,1.018480964E1
1.889218756E1,4.139318943E0,-3.208229065E0,-8.382707596E0,9.884153058E0
1.891029110E1,3.117376566E0,-3.874134541E0,-8.321164131E0,9.693746829E0
1.892839468E1,3.023817539E0,-3.684636116E0,-7.742356300E0,9.091979812E0
1.894649798E1,3.818555832E0,-3.222584486E0,-5.821223259E0,7.671574782E0
1.896460147E1,4.031319618E0,-3.045090199E0,-2.764736176E0,5.759156041E0
1.898269009E1,1.730929136E0,-3.244423866E0,1.152362823E-1,3.679087020E0
1.900080874E1,-3.090057850E0,-3.412346840E-1,1.030365944E0,3.275141616E0
1.901891250E1,-4.200591087E0,2.367342949E0,4.023166180E0,6.279740777E0
1.903701577E1,-4.908815622E-1,5.883889198E0,1.050684834E1,1.205217734E1
1.905511926E1,2.072514772E0,4.521435738E0,2.061426544E1,2.120581614E1
1.907322256E1,3.466548443E0,1.851096153E-1,2.702170944E1,2.724378837E1
1.909131399E1,5.564580441E0,-1.024900436E0,2.608525467E1,2.669186182E1
1.910941766E1,6.841736317E0,8.031024933E-1,1.977114487E1,2.093686936E1
1.912752200E1,6.792219639E0,9.817276001E-1,1.212007332E1,1.392818057E1
1.914562564E1,5.697113991E0,-1.002255678E0,6.913744926E0,9.014515693E0
1.916372970E1,3.839879990E0,-3.402974844E0,3.494231224E0,6.207621764E0
1.918183224E1,2.309434414E0,-4.402134895E0,1.772834778E0,5.277804667E0
1.919993655E1,1.840586662E0,-4.307905197E0,-1.249357224E0,4.848370852E0
1.921804086E1,2.102966785E0,-3.074595213E0,-4.077183723E0,5.522592882E0
1.923614309E1,2.947766304E0,-1.608556986E0,-5.542161942E0,6.480149747E0
1.925424759E1,3.362460375E0,-1.029927135E0,-5.023649216E0,6.132205241E0
1.927235040E1,3.071523190E0,-1.067301869E0,-5.266314507E0,6.189301775E0
1.929046661E1,2.713950634E0,1.038643122E-1,-6.115990639E0,6.691909842E0
1.930856851E1,2.003309250E0,1.751374364E0,-7.525841713E0,7.982409010E0
1.932666766E1,8.786122799E-1,2.325532436E0,-7.667203903E0,8.060153618E0
1.934477554E1,-1.793355942E-1,1.505408764E0,-6.691811085E0,6.861395805E0
1.936287902E1,-7.563180923E-1,8.871743083E-1,-6.045447826E0,6.156828301E0
1.938098285E1,-4.816324711E-1,1.169809580E0,-5.409076691E0,5.555045899E0
1.939908487E1,-4.046819210E-1,1.230722547E0,-4.828516960E0,4.999302099E0
1.941719104E1,-8.999636173E-1,2.347746491E-1,-3.261915207E0,3.391923417E0
1.943529312E1,-1.914354324E0,-1.209581137E0,-1.049863815E0,2.496007419E0
1.945339688E1,-1.936841726E0,-2.313402891E0,2.752783775E0,4.084238892E0
1.947150042E1,-9.920473099E-1,-2.651034355E0,8.254585266E0,8.726415010E0
1.948960366E1,4.849314690E-1,-3.174252033E0,1.231519890E1,1.272694615E1
1.950770739E1,1.299880743E0,-5.158226967E0,1.587325859E1,1.674088808E1
1.952581097E1,9.683922529E-1,-9.790582657E0,2.199111748E1,2.409154499E1
1.954391354E1,1.505915761E0,-1.417381287E1,2.722325516E1,3.072898265E1
1.956201889E1,3.842502117E0,-1.499653244E1,2.647268677E1,3.066698473E1
1.958011709E1,6.528436184E0,-1.252568722E1,2.033538437E1,2.475966835E1
1.959822528E1,7.984240055E0,-8.040560722E0,1.206072998E1,1.654871335E1
1.961632852E1,7.081686974E0,-2.061712265E0,3.468998909E0,8.150760780E0
1.963443200E1,4.376983643E0,3.371232510E0,-4.289066792E0,6.994232509E0
1.965253558E1,2.572815418E0,5.833926678E0,-8.595275879E0,1.070200201E1
1.967063028E1,3.353240252E0,4.860800266E0,-9.977617264E0,1.159415567E1
1.968874112E1,5.483253956E0,1.474602222E0,-4.945199966E0,7.529643309E0
1.970684320E1,4.209596634E0,-3.469012737E0,2.010871887E0,5.813635604E0
1.972494958E1,2.374584198E0,-5.001770973E0,4.874732971E0,7.376949540E0
1.974305334E1,3.024546385E0,-3.188045979E0,4.067105293E0,5.987726068E0
1.976115664E1,2.486738682E0,-2.184042692E0,1.749955177E0,3.743828906E0
1.977926068E1,1.363273859E0,-2.327819347E0,-2.175134182E0,3.465323540E0
1.979736416E1,1.329879999E0,-2.195648909E0,-5.619926453E0,6.178432510E0
1.981546600E1,1.271509886E0,-1.830192327E0,-8.215894699E0,8.512770821E0
1.983357180E1,8.205592632E-1,-1.252166986E0,-1.052332973E1,1.062928541E1
1.985167505E1,3.661742210E-1,-1.234526038E0,-1.149475098E1,1.156665198E1
1.986976651E1,1.711208820E-1,-2.053106546E0,-1.161083984E1,1.179220636E1
1.988788128E1,6.079697609E-2,-3.386340141E0,-1.115937996E1,1.166202199E1
1.990598547E1,4.440295696E-1,-4.366595268E0,-9.891204834E0,1.082128687E1
1.992408880E1,2.140547752E0,-3.198465109E0,-8.155882835E0,9.018345112E0
1.994219159E1,3.439560413E0,-1.107658625E0,-8.277994156E0,9.032312589E0
1.996029602E1,3.145299673E0,-3.213284016E-1,-9.237025261E0,9.763134622E0
1.997839956E1,2.414206028E0,-6.493144035E-1,-9.137105942E0,9.472945948E0
1.999650284E1,1.849529266E0,-1.220834494E0,-8.526920319E0,8.810196677E0
2.001459051E1,1.530740976E0,-1.725784302E0,-8.634241104E0,8.937092303E0
2.003270837E1,1.279263258E0,-2.224179268E0,-8.671120644E0,9.042777290E0
2.005081512E1,1.199841261E0,-2.220686913E0,-9.104989052E0,9.448380552E0
2.006891687E1,1.563570380E0,-1.904473782E0,-8.584351540E0,8.931005771E0
2.008701431E1,1.627004147E0,-1.848434925E0,-6.121592045E0,6.598313673E0
2.010512506E1,1.065697670E-1,-2.528085470E0,-2.766187191E0,3.748915154E0
2.012322830E1,-2.554286718E0,-1.225949287E0,9.340381622E-2,2.834793920E0
2.014133120E1,-1.324132442E0,2.366343498E0,1.223535538E0,2.974886130E0
2.015942303E1,3.991932631E0,3.564682484E0,6.362530708E0,8.314101536E0
2.017753845E1,5.768292904E0,-3.340861559E0,1.815658188E1,1.934156210E1
2.019564175E1,5.268692970E0,-9.871129036E0,2.382581711E1,2.632238353E1
2.021374469E1,5.734745026E0,-1.266080666E1,2.668259430E1,3.008561391E1
2.023184936E1,5.712990761E0,-1.210181808E1,2.435845184E1,2.779256089E1
2.024995257E1,4.693540573E0,-9.544774055E0,1.345986271E1,1.715517237E1
2.026805578E1,3.074985981E0,-6.566917896E0,4.614385605E0,8.594911515E0
2.028615899E1,2.455746889E0,-4.037467480E0,3.332061768E-1,4.737389871E0
2.030426370E1,2.951950788E0,-2.024539948E0,-3.607931137E-1,3.597630766E0
2.032236663E1,3.909186602E0,-3.629323244E-1,-7.251529694E-1,3.992406115E0
2.034047009E1,4.147635937E0,6.588872671E-1,-1.688377380E0,4.526326819E0
2.035856238E1,3.245871067E0,1.238326788E0,-3.423397064E0,4.877374260E0
2.037667038E1,2.019354105E0,1.434655547E0,-5.463555336E0,5.998871931E0
2.039478250E1,9.193830490E-1,1.468115807E0,-6.967647552E0,7.179745234E0
2.041288443E1,1.984021664E-1,1.426897645E0,-7.544603348E0,7.680914007E0
2.043098794E1,-2.529096603E-1,1.257089853E0,-7.198831558E0,7.312141547E0
2.044909146E1,-6.978592873E-1,9.580843449E-1,-7.231479645E0,7.327975918E0
2.046719497E1,-9.160652161E-1,1.000549078E0,-7.945731163E0,8.060702057E0
2.048529873E1,-1.879122257E-1,1.798740149E0,-8.832660675E0,9.015912141E0
2.050339080E1,8.994710445E-1,2.530604839E0,-8.328466415E0,8.750792070E0
2.052150549E1,1.574134231E0,1.631331563E0,-3.909713745E0,4.519402927E0
2.053960443E1,9.256393909E-1,-8.399260044E-2,2.646061897E0,2.804551052E0
2.055771817E1,-2.217104435E-1,-1.169586897E0,4.355856895E0,4.515592799E0
2.057581628E1,-3.780467510E-1,1.433493137E0,3.007223129E0,3.352791802E0
2.059391986E1,8.517633677E-1,4.493883133E0,5.596151352E0,7.227544286E0
2.061202310E1,1.068019271E0,4.607129097E-2,1.893607712E1,1.896622799E1
2.063012686E1,-1.154058456E0,-1.157238674E1,3.098361969E1,3.309436017E1
2.064823037E1,-1.440085649E0,-1.943741226E1,3.507929611E1,4.013033588E1
2.066633395E1,8.157439232E-1,-1.954713058E1,3.293357849E1,3.830634862E1
2.068443759E1,1.877947807E0,-1.556908321E1,2.585558701E1,3.023961672E1
2.070254092E1,3.018512964E0,-9.620038033E0,1.583260059E1,1.877039674E1
2.072064389E1,4.437244892E0,-3.341910839E0,8.372294426E0,1.004752827E1
2.073874926E1,5.335806370E0,2.816503048E0,2.529847145E0,6.542449512E0
2.075685196E1,5.861254215E0,5.434666634E0,5.326099396E-1,8.010841138E0
2.077495523E1,4.213121414E0,3.417359591E0,-2.497920036E0,5.972297977E0
2.079305841E1,4.052673340E0,1.369251728E0,-6.239500046E0,7.565075830E0
2.081116287E1,5.654471397E0,1.607978344E0,-8.630733490E0,1.044261470E1
2.082926574E1,4.923120022E0,-1.124658585E-1,-9.755037308E0,1.092751171E1
2.084737597E1,3.342545033E0,-2.038912773E0,-9.181134224E0,9.981132112E0
2.086547271E1,2.048141479E0,-2.882555723E0,-1.012409782E1,1.072386907E1
2.088357681E1,1.141979456E0,-3.354453087E0,-1.150037384E1,1.203391337E1
2.090168011E1,1.259507418E0,-3.255849123E0,-1.076292992E1,1.131492699E1
2.091978225E1,2.119143724E0,-3.187398911E0,-8.427156448E0,9.255660308E0
2.093788845E1,2.514352322E0,-3.431074381E0,-7.573019505E0,8.685900265E0
2.095599115E1,2.534155369E0,-3.653723955E0,-7.961578369E0,9.119121246E0
2.097409308E1,2.843588829E0,-3.515508175E0,-8.288853645E0,9.441921939E0
2.099220645E1,3.148868799E0,-3.473251343E0,-8.667559624E0,9.854209224E0
2.101030398E1,3.418492317E0,-3.602098465E0,-9.022274971E0,1.029867218E1
2.102840493E1,3.504653215E0,-3.803804398E0,-8.877744675E0,1.027452542E1
2.104650875E1,3.367189169E0,-3.949615479E0,-8.661043167E0,1.009708344E1
2.106461300E1,2.981049061E0,-4.191891193E0,-8.271408081E0,9.740369445E0
2.108269961E1,2.645986557E0,-4.202912331E0,-8.125477791E0,9.523082812E0
2.110081649E1,2.372646332E0,-4.621057034E0,-8.200568199E0,9.707365117E0
2.111892306E1,2.370290995E0,-5.080973148E0,-7.309877396E0,9.212430465E0
2.113702621E1,2.723881245E0,-5.841746807E0,-5.794396400E0,8.667212034E0
2.115512979E1,3.314633131E0,-6.073855400E0,-5.592928410E0,8.897154624E0
2.117323312E1,3.289836884E0,-6.119718552E0,-4.802784920E0,8.446343875E0
2.119133499E1,1.823061943E0,-6.138109207E0,7.441110611E-1,6.446211349E0
2.120944314E1,2.952982187E-1,-5.149353027E0,5.911403656E0,7.845236187E0
2.122754379E1,7.403960228E-1,-1.559359550E0,7.830684662E0,8.018691337E0
2.124564627E1,3.924028397E0,3.148251057E0,9.589160919E0,1.082873449E1
2.126375332E1,4.966302395E0,6.511647224E0,9.879972458E0,1.283275359E1
2.128185434E1,5.791854858E0,5.288980961E0,8.723697662E0,1.173123196E1
2.129995761E1,5.775789738E0,3.829445839E-1,1.259000397E1,1.385693305E1
2.131806228E1,4.268824577E0,-4.933181763E0,1.952857971E1,2.058942863E1
2.133616647E1,3.419710159E0,-4.088947296E0,1.968134689E1,2.039042234E1
2.135427328E1,3.263013363E0,-5.685703754E-1,1.115948677E1,1.164064747E1
2.137236758E1,1.312158585E0,3.321042061E-1,3.595332146E0,3.841674972E0
2.139047598E1,-1.079682112E-1,-4.211599827E-1,8.164033890E-1,9.249580310E-1
2.140858053E1,1.962728500E-1,-6.968662739E-1,8.646116257E-1,1.127696279E0
2.142667202E1,1.183845520E0,-5.118625164E-1,7.370519638E-1,1.485509693E0
2.144478378E1,1.591659069E0,-7.665894032E-1,-2.069320679E-1,1.778723921E0
2.146289309E1,1.655756235E0,-1.261808634E0,-1.099035263E0,2.354053578E0
2.148099478E1,1.650615215E0,-1.777531266E0,-1.593582630E0,2.902353113E0
2.149909127E1,1.561997771E0,-1.937023282E0,-2.500284195E0,3.527508652E0
2.151720193E1,9.869529605E-1,-2.105123043E0,-4.268395424E0,4.860536870E0
2.153530441E1,1.764559746E-1,-1.692294121E0,-5.593041420E0,5.846119091E0
2.155340884E1,-1.086074471E0,-8.215830326E-1,-6.548559189E0,6.688660844E0
2.157149960E1,-1.243824840E0,-4.986886978E-1,-6.795479774E0,6.926350844E0
2.158961184E1,4.961495399E-1,-1.142447233E0,-4.353393555E0,4.528066418E0
2.160772274E1,1.553427458E0,-3.283228397E0,-2.526397705E-1,3.640954879E0
2.162582199E1,1.418666244E0,-5.779126167E0,2.888476372E0,6.614696434E0
2.164392678E1,1.760968447E0,-5.498201847E0,1.353287697E0,5.929807839E0
2.166202938E1,2.025898933E0,-3.047584534E0,-1.857753277E0,4.104057165E0
2.168013266E1,1.014554024E0,-2.118987560E0,-1.049167633E0,2.572971214E0
2.169823751E1,3.514645100E-1,-1.604998827E0,2.354673386E0,2.871242813E0
2.171633969E1,1.073052287E0,-1.579043388E0,5.890853882E0,6.192493738E0
2.173444241E1,3.120756149E0,-2.019114494E0,1.088725948E1,1.150427579E1
2.175254763E1,3.671259165E0,-3.988764763E0,1.696750069E1,1.781248067E1
2.177065158E1,2.718999863E0,-6.582256317E0,1.954665375E1,2.080362303E1
2.178875198E1,3.563524961E0,-5.190560818E0,1.671542358E1,1.786185929E1
2.180685965E1,2.754803896E0,-2.452415943E0,1.241158962E1,1.294800546E1
2.182496133E1,1.091731906E0,-1.286597252E-1,6.481451035E0,6.574012427E0
2.184306631E1,1.702048063E0,3.176143646E0,2.689714432E-1,3.613475018E0
2.186116793E1,4.389821529E0,5.235358238E0,1.144882202E0,6.927500574E0
2.187927182E1,5.603048801E0,3.371261597E0,7.259427071E0,9.770304090E0
2.189737545E1,4.552725792E0,1.140618563E0,1.256734276E1,1.341515661E1
2.191547720E1,2.491944551E0,-3.995590210E-1,1.098060608E1,1.126690485E1
2.193358242E1,2.610376120E0,-9.574637413E-1,5.277013779E0,5.964702400E0
2.195167422E1,3.902789831E0,-9.652137756E-1,1.383154869E0,4.251649502E0
2.196978970E1,2.953108072E0,-2.725793600E0,-2.435293198E-1,4.026177414E0
2.198789181E1,1.338849425E0,-3.183834314E0,-3.554241180E0,4.956001321E0
2.200598507E1,2.565035820E-1,-2.761159897E0,-8.401704788E0,8.847510464E0
2.202410281E1,6.201424599E-1,-1.791233540E0,-1.254577065E1,1.268816202E1
2.204220437E1,1.560922623E0,-1.485120296E0,-1.343877316E1,1.361038889E1
2.206030880E1,2.377456188E0,-2.125182867E0,-1.129997635E1,1.174130170E1
2.207839920E1,2.446858883E0,-3.104293346E0,-9.430228233E0,1.022511419E1
2.209650186E1,2.157622099E0,-3.948132753E0,-9.061528206E0,1.011703409E1
2.211461032E1,1.787290931E0,-4.177225590E0,-9.090077400E0,1.016233879E1
2.213271139E1,1.949969649E0,-3.826739550E0,-9.052234650E0,1.001944456E1
2.215081411E1,2.141203880E0,-3.181433201E0,-9.970935822E0,1.068296927E1
2.216891812E1,2.482923746E0,-2.746307611E0,-1.018424225E1,1.083632345E1
2.218703555E1,3.156718969E0,-2.523797035E0,-8.863697052E0,9.741640086E0
2.220513589E1,3.714862585E0,-2.371685028E0,-7.183759212E0,8.428018173E0
2.222324087E1,3.454432011E0,-2.922349930E0,-5.745551586E0,7.313316119E0
2.224134317E1,2.656974792E0,-3.996488094E0,-4.530645370E0,6.599862090E0
2.225943600E1,2.006327868E0,-4.423169613E0,-3.572427273E0,6.029263434E0
2.227755117E1,1.864059687E0,-4.301275730E0,-2.936731815E0,5.531734373E0
2.229565371E1,2.684296608E0,-3.552251577E0,-6.713514328E-1,4.502738311E0
2.231376236E1,2.454712391E0,-2.490678549E0,2.750218391E0,4.448909277E0
2.233185604E1,-1.118897676E0,-1.889092922E0,3.561125755E0,4.183565552E0
2.234996554E1,-2.390421867E0,5.972867012E-1,3.295430183E0,4.114696611E0
2.236806784E1,1.603362441E0,3.731235027E0,4.863361359E0,6.336021595E0
2.238617178E1,3.490331173E0,3.948182583E0,1.012042236E1,1.141023690E1
2.240427499E1,4.534669876E0,-1.327884197E0,1.677286911E1,1.742571793E1
2.242237960E1,5.091200352E0,-4.138018608E0,2.036415863E1,2.139491705E1
2.244048233E1,4.661172867E0,-3.484387636E0,1.601852989E1,1.704291024E1
2.245858566E1,3.958302021E0,-1.811676025E0,8.457889557E0,9.512424542E0
2.247668747E1,2.822858095E0,-9.259469509E-1,2.457364082E0,3.855456369E0
2.249479315E1,1.187847257E0,-2.239268780E0,3.845825195E-1,2.563827117E0
2.251289645E1,3.229579926E-1,-3.538403749E0,1.036808014E0,3.701293533E0
2.253100018E1,6.035318375E-1,-3.674778700E0,9.813461304E-1,3.851141311E0
2.254910360E1,1.583991528E0,-2.722311258E0,-2.590780258E-1,3.160241948E0
2.256720694E1,2.601159811E0,-1.220966935E0,-2.347181320E0,3.710263167E0
2.258531039E1,3.111851454E0,1.456842422E-1,-4.898613930E0,5.805278788E0
2.260341455E1,2.727066755E0,2.111806870E-1,-6.263099670E0,6.834318390E0
2.262151797E1,2.124022484E0,-4.072341919E-1,-6.167015076E0,6.535241858E0
2.263960940E1,1.510560513E0,-9.931019545E-1,-5.787508965E0,6.063275070E0
2.265771429E1,9.448336363E-1,-1.390498161E0,-5.393701553E0,5.649620534E0
2.267581842E1,1.058168054E0,-9.674625397E-1,-6.206389427E0,6.369848752E0
2.269392312E1,1.542991996E0,1.605179310E-1,-7.464427948E0,7.623927787E0
2.271201974E1,1.425232530E0,4.412987232E-1,-7.541744232E0,7.687908584E0
2.273012863E1,1.028821230E0,2.616777420E-1,-5.676389694E0,5.774802882E0
2.274823364E1,1.833775043E-1,-4.843897820E-1,-2.945240021E0,2.990434676E0
2.276633593E1,-5.599517822E-1,-1.022618771E0,-1.886777878E-1,1.181056500E0
2.278443972E1,-2.856212854E-1,7.924365997E-2,1.483982086E0,1.513295050E0
2.280254437E1,3.778204918E-1,2.053804874E0,4.718715668E0,5.160149256E0
2.282065850E1,1.066723108E0,4.252009392E-1,1.254336166E1,1.259581740E1
2.283876092E1,1.468681097E0,-5.450699329E0,2.288441086E1,2.357039261E1
2.285686444E1,6.764365435E-1,-9.294809341E0,2.636730194E1,2.796579444E1
2.287496768E1,2.216550112E0,-8.455876350E0,2.117849350E1,2.291164608E1
2.289307119E1,4.216468811E0,-7.441997051E0,1.825901794E1,2.016317598E1
2.291117447E1,6.318302155E0,-6.240241051E0,1.955591202E1,2.147778493E1
2.292927868E1,8.011657715E0,-2.535856962E0,1.527008915E1,1.742965440E1
2.294738055E1,7.293476105E0,8.673377037E-1,6.578616142E0,9.860286950E0
2.296548639E1,5.652783394E0,2.782012939E0,2.414270401E0,6.747018428E0
2.298358987E1,3.780282736E0,2.018096209E0,2.222618103E0,4.827347212E0
2.300169250E1,2.242758036E0,-1.801760197E-1,3.298882484E0,3.993125674E0
2.301979657E1,1.434733391E0,-1.837934375E0,3.609303474E0,4.296921484E0
2.303789520E1,9.365782738E-1,-3.440271139E0,4.066370010E0,5.408142882E0
2.305599578E1,8.701739311E-1,-3.895107985E0,1.755941391E0,4.360320980E0
2.307410583E1,1.932394266E0,-2.364213228E0,-1.734615326E0,3.511771934E0
2.309221161E1,2.335284710E0,-1.366915464E0,-4.946967125E0,5.638660860E0
2.311031457E1,2.142028332E0,-1.218785286E0,-7.511992455E0,7.905931544E0
2.312841616E1,1.919932365E0,-1.194846392E0,-9.257634163E0,9.529826257E0
2.314652261E1,2.085523367E0,-1.423381805E0,-1.055641365E1,1.085418319E1
2.316462457E1,2.040809631E0,-2.108027935E0,-1.057710648E1,1.097651434E1
2.318272928E1,1.938535929E0,-2.653285027E0,-1.014797783E1,1.066673788E1
2.320083221E1,1.330886006E0,-3.466680527E0,-9.902248383E0,1.057561603E1
2.321893570E1,6.764674187E-1,-4.252175808E0,-9.844461441E0,1.074486055E1
2.323703921E1,3.052628040E-1,-5.013101101E0,-9.887531281E0,1.108997939E1
2.325513492E1,7.352945805E-1,-5.241218567E0,-9.600349426E0,1.096256080E1
2.327324649E1,1.757426500E0,-5.011613846E0,-8.887907982E0,1.035373022E1
2.329135028E1,2.634775162E0,-4.603663445E0,-8.085171700E0,9.669837572E0
2.330944040E1,2.906401873E0,-4.332995892E0,-8.027027130E0,9.573671698E0
2.332755984E1,2.898608208E0,-4.277904987E0,-8.101150513E0,9.608904217E0
2.334566079E1,2.729636908E0,-4.332792282E0,-8.334765434E0,9.782245215E0
2.336376242E1,2.692435741E0,-4.137336254E0,-7.424414635E0,8.915643228E0
2.338187075E1,2.704625845E0,-4.253254890E0,-4.824139595E0,6.976926326E0
2.339997134E1,2.764248133E0,-4.104578972E0,-9.085216522E-1,5.031306775E0
2.341807370E1,2.102073669E0,-2.659933090E0,7.925324440E-1,3.481675664E0
2.343618081E1,-1.251869202E0,1.354567528E0,4.998893738E-1,1.910999495E0
2.345428213E1,-2.122646570E0,7.731852055E0,-2.944458961E0,8.541487179E0
2.347238540E1,2.393948793E0,8.915304184E0,1.387684345E0,9.334843724E0
2.349047720E1,4.085153580E0,-5.616745949E-1,1.650305939E1,1.701043583E1
2.350859396E1,1.441801429E0,-9.300586700E0,2.742396927E1,2.899403033E1
2.352669625E1,1.812011242E0,-7.866505146E0,2.350691795E1,2.485438552E1
2.354479849E1,4.243605614E0,-2.246550560E0,1.252909470E1,1.341765225E1
2.356290463E1,4.226747513E0,1.306514740E0,3.954828262E0,5.934057793E0
2.358100820E1,2.462738276E0,5.087661743E-2,2.209544182E0,3.309041211E0
2.359911080E1,1.528249264E0,-1.513307333E0,3.325542450E0,3.960413802E0
2.361721426E1,1.763156533E0,-1.706885099E0,4.186146736E0,4.852422302E0
2.363531716E1,2.304544210E0,-1.174191475E0,3.252865791E0,4.155813458E0
2.365341977E1,2.749648809E0,-6.572594643E-1,6.724815369E-1,2.905992085E0
2.367152774E1,3.131065607E0,-5.177359581E-1,-9.107074738E-1,3.301667830E0
2.368962906E1,3.270874023E0,-8.829805851E-1,-4.564695358E-1,3.418572221E0
2.370773111E1,3.064411163E0,-1.427748442E0,-6.160449982E-2,3.381253688E0
2.372583664E1,2.645782948E0,-1.943987131E0,-8.422093391E-1,3.389479303E0
2.374393936E1,2.122912407E0,-2.312088013E0,-1.997081280E0,3.720328172E0
2.376204312E1,1.572924852E0,-2.383604527E0,-3.100066185E0,4.214982026E0
2.378014669E1,1.137678385E0,-2.352575302E0,-3.570399284E0,4.424553504E0
2.379825112E1,1.124734282E0,-2.212663651E0,-3.384076118E0,4.196770045E0
2.381635342E1,1.352082133E0,-1.563781261E0,-3.255975723E0,3.856801244E0
2.383445797E1,1.980051875E0,-4.343678951E-1,-3.414051533E0,3.970519962E0
2.385256033E1,2.293619394E0,-6.938624382E-2,-3.443539619E0,4.138051412E0
2.387066214E1,1.903196812E0,-9.988164902E-1,-1.678263187E0,2.726968979E0
2.388876773E1,1.100627303E0,-1.788886786E0,-2.668733597E-1,2.117242967E0
2.390687149E1,9.321765900E-1,-1.963518381E0,-5.388736725E-1,2.239362066E0
2.392497409E1,2.029704094E0,-9.632339478E-1,-1.470049858E0,2.684877080E0
2.394308096E1,2.685090780E0,-5.068764687E-1,-4.649524689E-1,2.771789503E0
2.396118234E1,1.763760686E0,-1.500822067E0,1.938508987E0,3.020121807E0
2.397928482E1,6.280685663E-1,-2.296180487E0,3.741324425E0,4.434458637E0
2.399738638E1,5.367330313E-1,-1.442430735E0,3.746194839E0,4.050020314E0
2.401549697E1,3.812448978E-1,-1.964564323E-1,3.472668648E0,3.499052777E0
2.403359664E1,1.203828096E0,1.439545155E0,4.739645004E0,5.097619749E0
2.405169741E1,1.828400016E0,-2.062032223E-1,1.058602715E1,1.074474463E1
2.406980435E1,6.006352901E-1,-6.172681808E0,1.979956055E1,2.074814115E1
2.408791134E1,-2.679131031E-1,-8.958807945E0,2.074303818E1,2.259658492E1
2.410601114E1,6.407151222E-1,-6.425898075E0,1.317117786E1,1.466910387E1
2.412410287E1,2.076410532E0,-2.736174583E0,8.653141022E0,9.309939935E0
2.414221829E1,3.573626041E0,-6.744925976E-1,8.491413116E0,9.237415226E0
2.416032290E1,3.725562334E0,-4.450774193E-1,9.019967079E0,9.769222831E0
2.417840786E1,3.103108644E0,-5.300407410E-1,7.545159340E0,8.175552331E0
2.419652597E1,3.842135429E0,2.862319946E-1,4.844075203E0,6.189426305E0
2.421463528E1,4.554455280E0,1.402389050E0,1.108703613E-1,4.766765170E0
2.423273721E1,3.729935169E0,6.272218227E-1,-3.415929317E0,5.096508283E0
2.425083468E1,3.130480766E0,-8.835136890E-1,-4.690514565E0,5.708014817E0
2.426893930E1,3.492616653E0,-1.173709869E0,-4.791492939E0,6.044366843E0
2.428704684E1,3.657999516E0,-1.073104620E0,-6.601074219E0,7.622774746E0
2.430514865E1,3.310877800E0,-1.348413229E0,-8.712323189E0,9.417255725E0
2.432325668E1,2.358188868E0,-2.415608883E0,-9.980768204E0,1.053622109E1
2.434135922E1,1.673249483E0,-3.307270288E0,-1.053734016E1,1.117019867E1
2.435945950E1,2.553052425E0,-2.761895657E0,-1.019335270E1,1.086510854E1
2.437756466E1,3.019141197E0,-2.296102762E0,-9.711789131E0,1.042622413E1
2.439566958E1,2.809232950E0,-2.164866686E0,-9.845506668E0,1.046481911E1
2.441377188E1,2.629128695E0,-2.244230747E0,-8.688822746E0,9.351178004E0
2.443186905E1,1.327329040E0,-3.439699888E0,-6.874666214E0,7.800921308E0
2.444997555E1,-8.581817150E-2,-4.750825405E0,-5.840276718E0,7.529046350E0
2.446808535E1,-6.912885904E-1,-5.102806568E0,-5.740643978E0,7.711777232E0
2.448618624E1,-5.523717403E-1,-4.736754417E0,-6.071849823E0,7.720707042E0
2.450428994E1,1.317490339E-1,-4.149613380E0,-5.579944611E0,6.955029178E0
2.452239450E1,1.828132868E-1,-4.187853813E0,-4.272416592E0,5.985405900E0
2.454049716E1,-1.597920656E-1,-4.601513386E0,-3.152964115E0,5.580380064E0
2.455860074E1,-2.652804852E-1,-4.524012566E0,-1.040419579E0,4.649681315E0
2.457670431E1,1.344628334E-1,-2.968471766E0,1.430816650E0,3.298051116E0
2.459480905E1,-8.102444410E-1,1.334012032E0,3.319020271E0,3.667694060E0
2.461291153E1,-8.913040161E-3,5.920917988E0,2.067078590E0,6.271376496E0
2.463101504E1,3.241837263E0,4.652593613E0,7.016914368E0,9.021819296E0
2.464911862E1,3.481733322E0,-8.179864883E-1,1.560767365E1,1.601221551E1
2.466721908E1,2.534435749E0,-6.152695179E0,1.989605713E1,2.097932582E1
2.468532266E1,2.947577000E0,-6.488623619E0,1.790453339E1,1.927077483E1
2.470343313E1,3.805851460E0,-3.049183846E0,1.158245373E1,1.256722968E1
2.472153335E1,3.455258369E0,5.647525787E-1,3.566025734E0,4.997428880E0
2.473963790E1,1.942471743E0,1.210826397E0,-1.523066044E0,2.749368511E0
2.475774038E1,6.463407278E-1,1.217133999E-1,-1.788506985E0,1.905604293E0
2.477584420E1,6.523156166E-2,-1.166249275E0,2.134790421E-1,1.187419820E0
2.479394741E1,3.855484724E-1,-1.686026573E0,2.123292923E0,2.738559122E0
2.481205230E1,1.274295330E0,-1.392957211E0,2.491664886E0,3.126108169E0
2.483015002E1,2.107190132E0,-5.916712284E-1,1.047754288E0,2.426543662E0
2.484825848E1,2.255255699E0,-2.517766953E-1,-6.502513885E-1,2.360592434E0
2.486636194E1,2.173421383E0,-2.723996639E-1,-1.306510448E0,2.550476747E0
2.488446493E1,2.030782461E0,-5.523204803E-1,-1.260322571E0,2.453069159E0
2.490256961E1,1.515669823E0,-1.082594633E0,-1.597026825E0,2.453520090E0
2.492066034E1,1.231563091E0,-1.340916634E0,-1.784809113E0,2.549578129E0
2.493877652E1,1.520927191E0,-1.238469839E0,-1.982394218E0,2.788711871E0
2.495687518E1,2.023232460E0,-7.634422779E-1,-1.971398354E0,2.926213452E0
2.497498352E1,2.222952843E0,-5.620832443E-1,-1.980121613E0,3.029577283E0
2.499308596E1,2.057130337E0,-7.120285034E-1,-1.644248962E0,2.728062401E0
2.501119198E1,1.829333544E0,-1.118626356E0,-8.263225555E-1,2.297954548E0
2.502929434E1,1.601824880E0,-1.303565741E0,-3.829956055E-2,2.065573393E0
2.504739636E1,1.341449380E0,-1.214470625E0,-3.854856491E-1,1.850141758E0
2.506550311E1,1.302513361E0,-7.974238396E-1,-1.658594131E0,2.254630863E0
2.508360479E1,1.135772228E0,-7.463381290E-1,-3.130681038E0,3.412940509E0
2.510170950E1,9.613866806E-1,-1.288729548E0,-3.666204453E0,4.003266577E0
2.511979998E1,7.344174385E-1,-2.188467503E0,-2.609934330E0,3.484324352E0
2.513791473E1,5.477001667E-1,-2.731860638E0,-1.085265160E0,2.990123490E0
2.515602087E1,5.714117289E-1,-2.807210445E0,-4.837799072E-1,2.905337304E0
2.517412323E1,1.505122542E0,-2.310951948E0,4.188528061E-1,2.789503620E0
2.519222653E1,2.352040291E0,-1.055056810E0,2.413359642E0,3.531224032E0
2.521032623E1,1.245356083E0,-1.238319874E-1,6.313477516E0,6.436322279E0
2.522843402E1,4.738613367E-1,-9.181385040E-1,1.090386677E1,1.095270895E1
2.524653753E1,1.870675564E0,-3.462100506E0,1.643758392E1,1.690206296E1
2.526462787E1,2.781049252E0,-7.791518211E0,2.313510323E1,2.456979838E1
2.528273330E1,2.417598009E0,-9.738319397E0,2.681510353E1,2.863091724E1
2.530083938E1,2.918560505E0,-4.821532726E0,2.006415558E1,2.084071765E1
2.531895364E1,4.299474716E0,2.104975700E0,1.043657780E1,1.148209744E1
2.533705118E1,3.817110062E0,4.904158592E0,5.539963722E0,8.325400817E0
2.535515963E1,1.504522324E0,2.538755894E0,4.237127304E0,5.163537228E0
2.537326284E1,7.953723669E-1,3.222784996E-1,3.671394348E0,3.770360340E0
2.539136663E1,2.012505770E0,-2.332158089E-1,1.060788155E0,2.286884474E0
2.540946545E1,3.645174980E0,6.380128860E-2,-2.279837132E0,4.299887043E0
2.542757364E1,4.532718658E0,1.490879059E-1,-4.274807453E0,6.232314530E0
2.544567743E1,4.760141850E0,-2.735314369E-1,-4.845794201E0,6.798197652E0
2.546378033E1,4.317650795E0,-1.574446559E0,-4.049675941E0,6.125427788E0
2.548188467E1,3.779868126E0,-2.581533432E0,-5.082205296E0,6.839629272E0
2.549998880E1,3.169777870E0,-2.629993916E0,-7.854174137E0,8.868619460E0
2.551809222E1,2.330496788E0,-2.202083111E0,-1.076462173E1,1.123198408E1
2.553619546E1,5.057822466E-1,-2.471371174E0,-1.312010765E1,1.336041601E1
2.555429928E1,-1.690691233E0,-4.536383629E0,-1.333143997E1,1.418324734E1
2.557240271E1,-3.002057314E0,-7.242451668E0,-1.209490013E1,1.441360689E1
2.559050650E1,-2.522344112E0,-8.001870155E0,-1.081320000E1,1.368639616E1
2.560860833E1,-6.986958981E-1,-6.549706459E0,-1.098472023E1,1.280823599E1
2.562670864E1,7.046797276E-1,-4.856917858E0,-1.223635483E1,1.318387667E1
2.564481878E1,1.562314272E0,-3.945660830E0,-1.248599625E1,1.318746251E1
2.566292105E1,2.550544739E0,-3.408644199E0,-1.093283939E1,1.173248102E1
2.568101236E1,3.198580980E0,-3.158509016E0,-9.348857880E0,1.037343931E1
2.569911718E1,3.381576538E0,-2.978166580E0,-9.306627274E0,1.034010867E1
2.571722149E1,3.358821869E0,-2.808052540E0,-8.723861694E0,9.760768734E0
2.573532388E1,2.895424843E0,-3.679713011E0,-7.322387218E0,8.691439894E0
2.575344034E1,2.372424841E0,-4.347471714E0,-4.057687759E0,6.402635386E0
2.577154236E1,1.953741670E0,-3.728003502E0,2.038934708E0,4.676790712E0
2.578963247E1,-1.914528012E0,-1.274337292E0,5.565359116E0,6.021841506E0
2.580773846E1,-3.670895338E0,4.241478443E0,3.550798416E0,6.638808730E0
2.582585180E1,1.912913203E0,1.084568501E1,5.342408180E0,1.224048387E1
2.584395794E1,5.328467846E0,5.677017212E0,1.795690155E1,1.957221008E1
2.586206134E1,4.672768593E0,-4.694662571E0,2.935436249E1,3.009241134E1
2.588016449E1,3.480837345E0,-9.407835960E0,2.921610641E1,3.089020039E1
2.589826770E1,4.940167427E0,-4.457331181E0,1.944919586E1,2.055588176E1
2.591637118E1,3.527689457E0,-1.956941962E0,8.571781158E0,9.473629029E0
2.593447561E1,9.245911837E-1,-2.852211714E0,4.775343895E0,5.638607083E0
2.595257855E1,-4.207465649E-1,-3.362993479E0,3.645840645E0,4.977841582E0
2.597068103E1,-5.849032402E-1,-2.399066210E0,8.569765091E-1,2.613816982E0
2.598878750E1,-2.270145416E-1,-1.234925866E0,-1.999184608E0,2.360787283E0
2.600688958E1,5.324411392E-1,-6.258631945E-1,-3.773229599E0,3.861665432E0
2.602499307E1,1.724040985E0,1.644754410E-1,-4.989337444E0,5.281368916E0
2.604309628E1,2.315070629E0,3.686349392E-1,-5.957768440E0,6.402378349E0
2.606120120E1,2.289668322E0,-6.966018677E-2,-6.769038200E0,7.146139638E0
2.607930407E1,1.907311678E0,-7.849037647E-1,-7.456000805E0,7.736010584E0
2.609741086E1,1.328869581E0,-1.274887562E0,-7.995429993E0,8.204762850E0
2.611551138E1,1.035982370E0,-1.449749827E0,-8.065955162E0,8.260427756E0
2.613360330E1,1.004046202E0,-1.139110088E0,-8.067884445E0,8.209533482E0
2.615170675E1,1.144088507E0,-4.584045410E-1,-8.814714432E0,8.900464243E0
2.616981176E1,1.175105572E0,4.015758038E-1,-8.770586014E0,8.858064984E0
2.618791500E1,9.012598991E-1,7.989454269E-1,-8.023859024E0,8.113747398E0
2.620601880E1,3.237880468E-1,1.141540289E0,-6.155160904E0,6.268489346E0
2.622412347E1,-4.234353304E-1,9.466474056E-1,-1.278149128E0,1.645935595E0
2.624222570E1,-1.092534065E0,1.664691687E0,6.677547455E0,6.968103695E0
2.626032956E1,-1.357823253E0,2.954336166E0,1.315616894E1,1.355199496E1
2.627843417E1,-3.547168970E-1,1.404638290E-1,2.077164650E1,2.077514988E1
2.629653588E1,9.662806988E-1,-7.991220474E0,3.246417236E1,3.344720901E1
2.631464123E1,1.926303029E0,-1.551455116E1,4.060940552E1,4.351477631E1
2.633275515E1,3.784230232E0,-1.794767761E1,4.089255524E1,4.481786032E1
2.635085833E1,5.179394722E0,-1.267211628E1,2.678863525E1,3.008387674E1
2.636895602E1,5.799332619E0,-3.796816587E0,9.984253883E0,1.215456296E1
2.638706674E1,4.240744591E0,7.844309807E-1,1.492074966E0,4.563500230E0
2.640516937E1,8.344562054E-1,8.293633461E-1,-2.436522484E0,2.705698160E0
2.642327227E1,-1.037303925E0,5.439653397E-1,-4.922370434E0,5.059805175E0
2.644136550E1,-7.793045044E-2,1.044061184E0,-8.024015427E0,8.092030677E0
2.645948016E1,1.651561499E0,4.465436935E-1,-9.835090637E0,9.982788413E0
2.647758365E1,3.097951174E0,-5.037596226E-1,-8.896282196E0,9.433711472E0
2.649568719E1,4.975547791E0,5.310964584E-2,-7.190284729E0,8.744088914E0
2.651379113E1,5.184413910E0,-1.583514214E-1,-6.403820515E0,8.240882231E0
2.653189523E1,5.002783775E0,-5.376253128E-1,-5.830381870E0,7.701314124E0
2.654999795E1,4.793453217E0,-1.043143034E0,-4.799542904E0,6.863013421E0
2.656810199E1,3.591971874E0,-2.153295040E0,-5.234961987E0,6.704011372E0
2.658620523E1,2.460284472E0,-3.217785597E0,-6.425124168E0,7.595351500E0
2.660430923E1,1.853596807E0,-3.728236675E0,-7.552700520E0,8.624317652E0
2.662241278E1,1.818943262E0,-4.007871628E0,-8.781101227E0,9.822389136E0
2.664051605E1,1.852714062E0,-4.322973251E0,-9.163254738E0,1.029980022E1
2.665861810E1,2.011320591E0,-4.680927753E0,-8.717239380E0,1.009686870E1
2.667672155E1,2.067900181E0,-5.158921242E0,-7.239796638E0,9.127175626E0
2.669482733E1,1.865870953E0,-6.014761925E0,-6.028303146E0,8.717756262E0
2.671293078E1,1.812372208E0,-6.288817406E0,-5.996059418E0,8.876184198E0
2.673103436E1,2.620769978E0,-5.434917450E0,-7.249937057E0,9.432303552E0
2.674913348E1,3.340604544E0,-3.961686373E0,-9.086834908E0,1.046064846E1
2.676724163E1,3.782332182E0,-2.702641964E0,-9.753807068E0,1.080495547E1
2.678533923E1,3.845746040E0,-2.769207716E0,-9.153859138E0,1.030783251E1
2.680344854E1,2.969435453E0,-3.726603508E0,-7.944587708E0,9.263994520E0
2.682155325E1,1.698898077E0,-5.518740177E0,-5.693335533E0,8.109057733E0
2.683966153E1,2.849643230E-1,-6.600909710E0,-2.271041393E0,6.986475698E0
2.685775994E1,-9.029386044E-1,-5.806720257E0,9.998588562E-1,5.960957641E0
2.687586261E1,-1.118192434E0,-1.221873283E0,1.411087036E0,2.175889534E0
2.689396756E1,-1.446700573E0,4.840365887E0,2.869548798E-1,5.060081775E0
2.691207049E1,-4.641845703E0,1.089929390E1,4.031450272E0,1.251374965E1
2.693017419E1,-6.918869495E0,1.551492214E1,6.409526825E0,1.815669569E1
2.694827780E1,-2.577345371E-1,1.014452648E1,7.667042732E0,1.271854508E1
2.696638150E1,7.343384743E0,2.355482578E0,1.973156738E1,2.118509733E1
2.698448501E1,7.818062782E0,-9.919176102E0,3.379640579E1,3.607920737E1
2.700258740E1,3.643805504E0,-1.213548470E1,2.901237488E1,3.165857235E1
2.702069394E1,2.832648754E0,-7.739763737E0,1.867646217E1,2.041416373E1
2.703879608E1,1.508264780E0,-5.355431557E0,6.938676834E0,8.893860018E0
2.705689956E1,1.497121215E0,-1.684831738E0,6.543569565E-1,2.346958233E0
2.707500308E1,2.517772436E0,-1.505816221E0,-2.015791416E0,3.559504961E0
2.709310687E1,2.467363358E0,-2.312367201E0,-4.477959633E0,5.611331971E0
2.711121038E1,2.154973507E0,-2.833970070E0,-6.028693676E0,7.001460177E0
2.712931045E1,2.322602510E0,-3.134564161E0,-6.739081860E0,7.786860678E0
2.714741598E1,3.256028175E0,-2.422144651E0,-7.558596134E0,8.579095507E0
2.716552063E1,3.835128307E0,-1.355140448E0,-8.420414925E0,9.351363658E0
2.718362515E1,3.483457565E0,-1.421684504E0,-9.007801056E0,9.761974355E0
2.720172897E1,2.413025618E0,-1.819972754E0,-8.811608315E0,9.315548000E0
2.721983340E1,1.023855448E0,-1.921190262E0,-9.183892250E0,9.438385925E0
2.723793472E1,6.764841080E-2,-1.517351866E0,-1.081348705E1,1.091963531E1
2.725602865E1,-7.930684090E-2,-6.348075867E-1,-1.249911594E1,1.251547720E1
2.727412979E1,2.431986332E-1,-4.204750061E-1,-1.221796703E1,1.222761887E1
2.729224649E1,3.487961292E-1,-1.760709286E0,-8.902878761E0,9.082015534E0
2.731035025E1,-5.203104019E-2,-3.122483492E0,-5.222665310E0,6.085132975E0
2.732845266E1,5.800288916E-1,-2.648769855E0,-1.432184219E0,3.066523586E0
2.734655996E1,1.519758821E0,-1.241720080E0,3.425781250E0,3.948102431E0
2.736465200E1,2.713664770E-1,-2.217447281E0,1.020082474E1,1.044258290E1
2.738276510E1,-1.398308992E0,-4.138984680E0,1.720833588E1,1.775424698E1
2.740086837E1,-1.546113491E-1,-5.739005089E0,2.592877388E1,2.655675807E1
2.741896933E1,7.836539149E-1,-9.027879715E0,3.200780106E1,3.326583915E1
2.743707559E1,6.030367613E-1,-1.197010803E1,3.176439667E1,3.395031716E1
2.745517916E1,1.209009528E0,-1.073490715E1,2.487972641E1,2.712380360E1
2.747328292E1,2.554997444E0,-6.509325981E0,1.662185478E1,1.803289752E1
2.749138754E1,4.651631832E0,-1.527655602E0,1.113902855E1,1.216755388E1
2.750949020E1,6.003532410E0,2.420111656E0,7.656144142E0,1.002576107E1
2.752759372E1,5.334189892E0,4.294996738E0,4.724826813E0,8.320130239E0
2.754569723E1,3.634993553E0,4.317476749E0,1.575203896E0,5.859611841E0
2.756379532E1,3.234827518E0,3.480550766E0,-1.961971760E0,5.140785533E0
2.758189938E1,3.404457092E0,1.119484901E0,-4.258706570E0,5.565982050E0
2.760000869E1,3.673185825E0,-1.807360888E0,-2.324942589E0,4.707887586E0
2.761811196E1,4.143839836E0,-3.169967175E0,-7.337894440E-1,5.268638099E0
2.763621652E1,4.583001137E0,-3.471404552E0,-1.609136581E0,5.970248699E0
2.765431900E1,4.095056534E0,-2.921849728E0,-3.866161346E0,6.344595921E0
2.767242251E1,2.199984074E0,-3.347660303E0,-6.650328636E0,7.763609367E0
2.769052633E1,4.054960012E-1,-3.898879528E0,-9.481570244E0,1.025991534E1
2.770861300E1,-1.802086830E-1,-3.781337023E0,-1.102854347E1,1.166017821E1
2.772673239E1,2.001199722E-1,-3.566282988E0,-1.123871899E1,1.179267683E1
2.774483822E1,7.532508373E-1,-3.882610798E0,-9.749841690E0,1.052147644E1
2.776294088E1,7.634203434E-1,-4.608520985E0,-8.882882118E0,1.003627775E1
2.778104532E1,-1.282894611E-1,-5.823827267E0,-8.889771461E0,1.062833284E1
2.779914816E1,-8.597202301E-1,-6.448120117E0,-9.269407272E0,1.132427848E1
2.781725137E1,-5.472278595E-1,-5.910775185E0,-9.769028664E0,1.143112604E1
2.783535397E1,6.869521141E-1,-4.542012215E0,-1.040358734E1,1.137261657E1
2.785346115E1,1.766586542E0,-3.066015244E0,-1.044464779E1,1.102778060E1
2.787156234E1,1.557621002E0,-2.917202473E0,-1.024713707E1,1.076754715E1
2.788966195E1,1.142622828E0,-3.221436024E0,-9.386415482E0,9.989396007E0
2.790777023E1,7.451835871E-1,-3.653781891E0,-9.126762390E0,9.859168951E0
2.792587448E1,9.418518543E-1,-3.982538223E0,-7.311580658E0,8.378956220E0
2.794397726E1,1.237978578E0,-3.899208784E0,-4.180448532E0,5.849151223E0
2.796208072E1,4.207026958E-1,-3.868428707E0,-8.073759079E-1,3.974114653E0
2.798018429E1,-1.082522392E0,-3.161106825E0,4.745341301E0,5.803681172E0
2.799828921E1,-3.776883602E0,-5.140190125E-1,7.792495728E0,8.674794231E0
2.801639132E1,-4.973791838E-1,4.068855762E0,6.148339272E0,7.389522925E0
2.803449441E1,3.976253748E0,7.122776031E0,1.026724243E1,1.311338246E1
2.805258426E1,3.883392811E0,4.341220856E-1,1.823477173E1,1.864875604E1
2.807069986E1,2.354033947E0,-6.034671783E0,2.233619308E1,2.325648858E1
2.808880966E1,3.023992062E0,-5.291232109E0,1.890639496E1,1.986437604E1
2.810690951E1,5.320522308E0,-1.064954996E0,9.613225937E0,1.103884956E1
2.812500882E1,4.568869114E0,2.823767662E-1,2.281241417E0,5.114524809E0
2.814312216E1,2.696064949E0,-1.595568180E0,1.785219193E0,3.605774756E0
2.816121572E1,1.945622206E0,-1.804654121E0,2.300153732E0,3.511827083E0
2.817932443E1,1.785692215E0,-8.900554180E-1,3.730306625E-1,2.029789942E0
2.819742788E1,2.446779490E0,3.903388977E-3,-1.676544189E0,2.966065664E0
2.821553122E1,2.729922533E0,-3.399972916E-1,-1.885380745E0,3.335076573E0
2.823363613E1,2.646257162E0,-1.442607880E0,-1.249592781E0,3.262710006E0
2.825172598E1,2.533885956E0,-2.177216291E0,-1.303674698E0,3.586142291E0
2.826984219E1,2.214211226E0,-2.141448021E0,-2.175134659E0,3.770907286E0
2.828794564E1,1.634301543E0,-1.780052423E0,-2.646533966E0,3.583806663E0
2.830605032E1,9.370623827E-1,-1.497382402E0,-3.054011345E0,3.528062537E0
2.832415298E1,4.173452854E-1,-1.299702168E0,-3.768495560E0,4.008111974E0
2.834225686E1,2.786676884E-1,-9.545955658E-1,-4.260358334E0,4.374878456E0
2.836036154E1,4.463783503E-1,-9.031629562E-1,-4.796534538E0,4.901193787E0
2.837846395E1,9.793167710E-1,-1.193231821E0,-4.516237736E0,4.772763016E0
2.839655660E1,1.577349544E0,-1.815848351E0,-2.004852295E0,3.131256863E0
2.841467062E1,1.335384369E0,-2.710058689E0,-2.480068207E-1,3.031365516E0
2.843277627E1,1.050700665E0,-2.863359928E0,3.130226135E-1,3.066069980E0
2.845087826E1,1.174337864E0,-2.583606958E0,5.356435776E-1,2.888080396E0
2.846897824E1,1.496194601E0,-2.089553356E0,1.915336609E0,3.205206052E0
2.848708572E1,1.434076905E0,-1.876896739E0,4.005964279E0,4.650491129E0
2.850519058E1,3.710427284E-1,-1.881853819E0,5.254541397E0,5.593679629E0
2.852329013E1,6.127208471E-1,-2.150681257E0,7.360810280E0,7.693008819E0
2.854138510E1,7.681189775E-1,-4.371340752E0,1.395146084E1,1.464041961E1
2.855948898E1,-8.542377949E-1,-7.057667255E0,1.872387314E1,2.002807566E1
2.857760812E1,-1.435522079E0,-6.145621777E0,1.507157135E1,1.633957324E1
2.859570608E1,-1.320764065E0,-3.568563461E0,1.163711834E1,1.224343033E1
2.861380825E1,-1.267843962E0,-2.183777809E0,1.084460163E1,1.113470693E1
2.863190493E1,-7.402250767E-1,5.962567329E-1,8.668251991E0,8.720209163E0
2.865001919E1,-3.400974274E-1,2.900874138E0,4.287187576E0,5.187553791E0
2.866812063E1,7.751941681E-1,3.357132673E0,2.817958832E0,4.451085009E0
2.868622641E1,1.456638694E0,1.289327860E0,2.548496246E0,3.206087293E0
2.870432907E1,1.209524155E0,-2.041790485E0,2.629703522E0,3.542202377E0
2.872243374E1,5.505256653E-1,-3.719314098E0,1.184406281E0,3.941978451E0
2.874053610E1,3.116484880E0,-2.087584019E0,-6.096801758E-1,3.800288800E0
2.875864114E1,7.562329292E0,1.640952826E0,-1.446313858E-1,7.739668516E0
2.877674258E1,6.276285648E0,7.692682743E-1,-8.752040863E-1,6.383534868E0
2.879484701E1,1.932962298E0,-3.326848745E0,-3.115871906E0,4.951052773E0
2.881294918E1,-8.624870777E-1,-5.945780754E0,-7.429430008E0,9.554717315E0
2.883104348E1,-6.630687714E-1,-4.844593048E0,-1.029731846E1,1.139932057E1
2.884914688E1,9.461534023E-1,-2.962161541E0,-1.105299187E1,1.148208328E1
2.886725149E1,1.328696609E0,-2.485330582E0,-1.041703606E1,1.079152181E1
2.888535366E1,8.429152966E-1,-3.628361225E0,-8.964073181E0,9.707219961E0
2.890347195E1,1.059364796E0,-4.066552162E0,-8.145702362E0,9.165782412E0
2.892157241E1,2.857201099E0,-2.944787264E0,-7.986255646E0,8.978621798E0
2.893966201E1,5.379370213E0,-1.150546551E0,-9.712687492E0,1.116233307E1
2.895777792E1,6.621563435E0,8.822917938E-1,-1.195021820E1,1.369055354E1
2.897588504E1,5.827990055E0,6.641592979E-1,-1.240142441E1,1.371866987E1
2.899398696E1,4.328006744E0,-1.371198654E0,-1.075791454E1,1.167666705E1
2.901209146E1,3.153465986E0,-2.732872009E0,-9.398047447E0,1.028281250E1
2.903019430E1,2.749686718E0,-3.236246824E0,-7.686657906E0,8.781729916E0
2.904829635E1,2.441771746E0,-4.206555367E0,-4.481679440E0,6.613834584E0
2.906640274E1,1.509238958E0,-4.732397556E0,4.450407028E-1,4.987128441E0
2.908450711E1,-1.006407857E0,-3.687640905E0,3.277283669E0,5.035090909E0
2.910260678E1,-4.788442135E0,-8.487415314E-2,2.497846603E0,5.401446043E0
2.912071041E1,-1.014571786E0,5.157524586E0,3.288590431E0,6.200342151E0
2.913881576E1,4.973123550E0,6.972902298E0,1.177925587E1,1.456379734E1
2.915692068E1,6.068985939E0,4.663510323E-1,2.245435715E1,2.326474218E1
2.917502163E1,4.938176632E0,-5.327928543E0,2.749012947E1,2.843377621E1
2.919312783E1,3.779864788E0,-5.590422630E0,2.070642090E1,2.177833946E1
2.921123037E1,4.389592171E0,-3.056112528E0,1.177434158E1,1.293226442E1
2.922932687E1,3.333894730E0,-2.470683336E0,7.141812325E0,8.259819217E0
2.924743625E1,7.783482075E-1,-4.046807289E0,4.825981140E0,6.346067218E0
2.926554232E1,-9.141763449E-1,-4.500586987E0,2.119225502E0,5.057876861E0
2.928364230E1,-3.827824593E-1,-2.737123966E0,-1.362286568E0,3.081265115E0
2.930174996E1,5.213274956E-1,-9.277951717E-1,-4.414759636E0,4.541221078E0
2.931985147E1,6.530232430E-1,-3.785121441E-1,-6.823186874E0,6.864808076E0
2.933795578E1,2.409739494E-1,-1.597704768E0,-7.240362167E0,7.418461652E0
2.935605899E1,-1.373618841E-1,-2.963329315E0,-6.068552017E0,6.754814024E0
2.937415841E1,5.075350404E-1,-2.753850698E0,-5.015118599E0,5.743927232E0
2.939226651E1,1.209125280E0,-1.778325796E0,-4.621785641E0,5.097580709E0
2.941037002E1,1.485521317E0,-3.151910305E-1,-5.169701099E0,5.388128471E0
2.942847354E1,6.185274124E-1,7.349209785E-1,-6.522451401E0,6.592803446E0
2.944657650E1,-4.878764749E-1,1.118736744E0,-7.809505463E0,7.904300787E0
2.946468289E1,-1.033257723E0,7.589998245E-1,-8.608844757E0,8.703787124E0
2.948278488E1,-1.074160337E-1,2.678995132E-1,-8.129425049E0,8.134547312E0
2.950088345E1,1.839850426E0,5.138814449E-1,-6.087229252E0,6.379928189E0
2.951898263E1,2.688808680E0,6.218214035E-1,-3.037195206E0,4.103767621E0
2.953708096E1,2.139490366E0,-6.340773106E-1,-7.750339508E-1,2.362234257E0
2.955519064E1,6.897161007E-1,-2.178479433E0,-3.730468750E-1,2.315306656E0
2.957328604E1,-2.318715006E-1,-3.355446577E0,3.133945465E-1,3.378017505E0
2.959140738E1,2.693434656E-1,-3.979279041E0,3.595746994E0,5.369972443E0
2.960950979E1,1.719097853E0,-3.533959389E0,8.964195251E0,9.787796631E0
2.962761215E1,5.161992073E0,-2.511818409E0,1.663712692E1,1.759969847E1
2.964570559E1,9.311091423E0,-4.942078590E0,2.564943695E1,2.773110492E1
2.966381234E1,1.129236412E1,-9.273366928E0,3.453405762E1,3.749818605E1
2.968191470E1,1.213390732E1,-8.895945549E0,3.221195602E1,3.555249168E1
2.970001736E1,1.142087269E1,-4.351887703E0,2.099985695E1,2.429751533E1
2.971812167E1,7.475832939E0,-4.949572086E-1,7.953351021E0,1.092652064E1
2.973622567E1,3.472173214E0,1.251199722E0,4.549732208E-1,3.718667531E0
2.975432766E1,2.290201187E0,2.317625523E0,-8.279762268E-1,3.361837916E0
2.977243081E1,2.542399406E0,2.110337973E0,4.258670807E-1,3.331468726E0
2.979053317E1,2.997556210E0,1.455984354E0,4.253578186E-1,3.359488494E0
2.980865493E1,2.982728720E0,1.042333126E0,-7.768507004E-1,3.253709571E0
2.982675357E1,2.563075781E0,5.849626064E-1,-1.867468834E0,3.224744727E0
2.984485714E1,2.286940813E0,-2.497746944E-1,-3.644042969E0,4.309470366E0
2.986296060E1,1.769997120E0,-9.401690364E-1,-5.854624748E0,6.188169242E0
2.988106515E1,1.087452531E0,-1.901225448E0,-7.740386963E0,8.044302427E0
2.989916787E1,4.659793377E-1,-2.597682476E0,-9.451850891E0,9.813387604E0
2.991727578E1,2.130620480E-1,-2.456452131E0,-1.038266945E1,1.067142809E1
2.993537472E1,4.011149406E-1,-1.796584487E0,-1.126634216E1,1.141573803E1
2.995347994E1,1.132933617E0,-1.062217236E0,-1.158832932E1,1.169192971E1
2.997158212E1,1.761469126E0,-1.591730952E0,-1.015388489E1,1.042773989E1
2.998968411E1,1.709707260E0,-3.400051594E0,-8.119890213E0,8.967500590E0
3.000778189E1,1.433645725E0,-4.800940514E0,-6.513999939E0,8.218063342E0
3.002589541E1,1.817080259E0,-4.829435825E0,-6.613146782E0,8.388023690E0
3.004399673E1,2.500145435E0,-3.872344971E0,-7.857316494E0,9.109511801E0
3.006210019E1,2.779712200E0,-3.351901054E0,-8.549612999E0,9.594682018E0
3.008019943E1,2.276670933E0,-3.846209764E0,-9.210938454E0,1.023806365E1
3.009830606E1,2.418145895E0,-3.710226774E0,-9.155656815E0,1.017050952E1
3.011641253E1,3.108223438E0,-3.006232262E0,-7.673871994E0,8.808336775E0
3.013451419E1,3.416221142E0,-2.536834955E0,-5.333315849E0,6.822782162E0
3.015261917E1,2.839091301E0,-1.608586311E0,-1.641074181E0,3.652548946E0
3.017072207E1,4.738559723E-1,-1.563016891E0,1.888512135E0,2.496805833E0
3.018882562E1,-2.891247511E0,-7.555723190E-2,2.605342388E0,3.892663616E0
3.020692450E1,-1.131304741E0,2.680195808E0,2.181181908E0,3.636049299E0
3.022503161E1,3.736069441E0,5.233747482E0,6.128182411E0,8.882845672E0
3.024313739E1,4.278120518E0,-7.384324074E-1,1.534399033E1,1.594633615E1
