"Time (s)","Linear Acceleration x (m/s^2)","Linear Acceleration y (m/s^2)","Linear Acceleration z (m/s^2)","Absolute acceleration (m/s^2)"
1.181624270E-1,4.687100053E-1,2.217793465E-1,-1.061191559E-1,5.292791540E-1
1.362610000E-1,6.868367195E-1,2.184358835E-1,-5.234937668E-1,8.907887731E-1
1.543642100E-1,9.074687958E-1,2.764799595E-1,-7.474241257E-1,1.207718348E0
1.724641870E-1,8.997272253E-1,3.414237499E-1,-6.064138412E-1,1.137460770E0
1.905724620E-1,9.478580356E-1,3.718864918E-1,-6.034345627E-1,1.183582566E0
2.086728030E-1,1.025496602E0,3.845800161E-1,-5.816831589E-1,1.240121110E0
2.267630750E-1,8.991770148E-1,3.824645281E-1,-5.488567352E-1,1.120732856E0
2.448784920E-1,6.451996565E-1,3.452929258E-1,-3.556270599E-1,8.136217838E-1
2.629813970E-1,3.847755194E-1,2.957702875E-1,-1.453990936E-1,5.066292132E-1
2.810842420E-1,1.741392016E-1,1.856809855E-1,1.913728714E-1,3.184736501E-1
2.991845220E-1,1.707330346E-1,1.426767111E-1,3.904991150E-1,4.494396197E-1
3.172932250E-1,2.467209250E-1,1.871829033E-1,4.223203659E-1,5.237013897E-1
3.353930180E-1,3.475902379E-1,3.103446960E-1,1.766157150E-1,4.983231026E-1
3.534948860E-1,5.241492987E-1,4.999071360E-1,-1.952037811E-1,7.501627477E-1
3.716000510E-1,4.937458932E-1,5.881278515E-1,-4.713735580E-1,9.010396262E-1
3.897019180E-1,4.483084679E-1,7.415988445E-1,-6.074886322E-1,1.058296635E0
4.078049450E-1,5.947295427E-1,9.122757912E-1,-7.616167068E-1,1.328913224E0
4.259074220E-1,7.065045238E-1,1.076399088E0,-8.819046021E-1,1.560621468E0
4.440070320E-1,5.832904577E-1,1.077370167E0,-6.819343567E-1,1.402137191E0
4.621169570E-1,5.490908623E-1,9.779232740E-1,-2.805976868E-1,1.156101106E0
4.802154060E-1,5.483716726E-1,8.033514023E-1,-4.884624481E-2,9.738947184E-1
4.983202040E-1,3.177121580E-1,5.742783546E-1,-2.753067017E-2,6.568824718E-1
5.164220710E-1,8.029470593E-2,3.287941217E-1,1.601400375E-1,3.744297610E-1
5.345251600E-1,-6.131257862E-2,5.959296227E-2,4.783210754E-1,4.859028757E-1
5.526279430E-1,-2.887201309E-2,-1.354829073E-1,7.223291397E-1,7.354920784E-1
5.707192520E-1,-6.234422326E-3,-2.726038694E-1,8.842496872E-1,9.253373693E-1
5.888307620E-1,-2.613693476E-3,-3.195486665E-1,7.137689590E-1,7.820385595E-1
6.069396490E-1,4.547098279E-2,-2.830110788E-1,5.497264862E-1,6.199694272E-1
6.250395030E-1,-4.425436258E-3,-2.777098417E-1,4.056663513E-1,4.916375995E-1
6.431425920E-1,-2.351675630E-1,-4.157984257E-1,3.451566696E-1,5.893430580E-1
6.612456190E-1,-5.794516802E-1,-6.785205603E-1,4.181413651E-1,9.853915981E-1
6.793483400E-1,-1.053232908E0,-1.028134346E0,6.547727585E-1,1.610927422E0
6.974514300E-1,-1.051652908E0,-1.278359175E0,1.330450058E0,2.123740421E0
7.155529300E-1,-4.623948336E-1,-1.300806642E0,2.061029434E0,2.480675156E0
7.336557740E-1,5.848389864E-2,-1.094633698E0,2.044329643E0,2.319682519E0
7.517612440E-1,2.570015192E-1,-7.690873146E-1,1.210315704E0,1.456849060E0
7.698637210E-1,3.425821662E-1,-4.715576768E-1,2.063236237E-1,6.183030170E-1
7.879644300E-1,3.848598599E-1,-3.320221007E-1,-4.151468277E-1,6.562794189E-1
8.060653210E-1,3.091349006E-1,-2.689696848E-1,-7.991867065E-1,8.981138402E-1
8.241716450E-1,2.855905890E-1,-2.334046960E-1,-1.148904800E0,1.206657357E0
8.422746100E-1,1.512654424E-1,-2.356607318E-1,-1.290740967E0,1.320768510E0
8.603762330E-1,-4.120367765E-1,-4.913426638E-1,-8.804931641E-1,1.089247507E0
8.784813980E-1,-6.600673199E-1,-7.821087241E-1,-6.218528748E-2,1.025304800E0
8.965829600E-1,-4.155815244E-1,-9.493407607E-1,5.204610825E-1,1.159670480E0
9.146896490E-1,-1.170562506E-1,-9.163626432E-1,4.384641647E-1,1.022581773E0
9.327856580E-1,7.147467136E-2,-7.677926421E-1,-2.234449387E-1,8.028336132E-1
9.508952770E-1,1.583877802E-1,-5.907748342E-1,-7.854995728E-1,9.955456656E-1
9.689948250E-1,3.300108910E-1,-3.125880957E-1,-1.188161850E0,1.272142715E0
9.870965700E-1,4.272932708E-1,-1.193149090E-1,-1.419994354E0,1.487682612E0
1.005201977E0,2.851267159E-1,2.976000309E-3,-1.464720726E0,1.492217446E0
1.023303481E0,-4.487538338E-2,3.833973408E-2,-1.224169731E0,1.225591802E0
1.041406446E0,-2.821108103E-1,1.752263308E-2,-9.492712021E-1,9.904591698E-1
1.059497877E0,-4.546655118E-1,-4.560208321E-2,-6.603984833E-1,8.030731189E-1
1.077605361E0,-5.340703726E-1,-6.134778261E-2,-5.759353638E-1,7.878427867E-1
1.095715102E0,-4.066561759E-1,-1.684945822E-2,-6.261816025E-1,7.468310042E-1
1.113817763E0,-1.326946020E-1,1.145476103E-2,-3.969297409E-1,4.186792187E-1
1.131922316E0,-5.019301176E-2,-4.177021980E-2,2.628326416E-3,6.535287134E-2
1.150022780E0,2.007547021E-2,-7.422924042E-3,1.664667130E-1,1.678370961E-1
1.168126905E0,1.993401945E-1,1.111174226E-1,-3.195953369E-2,2.304452354E-1
1.186224927E0,2.482248247E-1,2.022099495E-1,-3.411121368E-1,4.678268025E-1
1.204332471E0,1.977664232E-2,1.602317095E-1,-4.083795547E-1,4.391345774E-1
1.222435499E0,-2.706631422E-1,9.342193604E-3,-1.966142654E-1,3.346684666E-1
1.240538038E0,-3.616279960E-1,-2.333526611E-1,-8.936882019E-3,4.304743195E-1
1.258622817E0,-4.149602354E-1,-5.396578908E-1,3.734722137E-1,7.764690145E-1
1.276742689E0,-4.657944739E-1,-9.166445136E-1,8.952312469E-1,1.363319714E0
1.294844495E0,-1.124295294E-1,-1.065130353E0,1.348389626E0,1.722003963E0
1.312947157E0,3.186791539E-1,-1.095472813E0,1.712726593E0,2.057923582E0
1.331055922E0,6.032899022E-1,-1.165854335E0,2.015308380E0,2.405128459E0
1.349155776E0,8.138023615E-1,-1.173681855E0,2.362618446E0,2.760755205E0
1.367258985E0,9.875601530E-1,-1.061682463E0,1.695760727E0,2.231154219E0
1.385361586E0,9.043458104E-1,-8.776381016E-1,5.008115768E-1,1.356061288E0
1.403459975E0,9.247536063E-1,-6.516395211E-1,-4.491901398E-1,1.217199688E0
1.421567030E0,1.034599900E0,-5.047701001E-1,-6.671609879E-1,1.330523803E0
1.439670484E0,9.173555970E-1,-6.063480377E-1,-4.415321350E-1,1.184968295E0
1.457773145E0,4.482983053E-1,-9.557247162E-1,1.955881119E-1,1.073608780E0
1.475876112E0,6.630732119E-2,-1.293869376E0,7.919530869E-1,1.518447996E0
1.493978834E0,-9.436593205E-2,-1.434182644E0,1.100901604E0,1.810461026E0
1.512081983E0,3.274599835E-2,-1.309330225E0,6.439294815E-1,1.459473575E0
1.530184156E0,3.114184141E-1,-1.058695555E0,-3.032798767E-1,1.144463363E0
1.548288465E0,5.703825355E-1,-9.126470089E-1,-7.190179825E-1,1.294313586E0
1.566390821E0,6.628778577E-1,-9.452116489E-1,-6.192436218E-1,1.310074341E0
1.584493422E0,6.114803553E-1,-1.041238904E0,-1.936645508E-1,1.222944250E0
1.602584424E0,5.638241768E-1,-9.989843369E-1,-4.462499619E-1,1.230855977E0
1.620696669E0,4.256879687E-1,-7.912586927E-1,-1.393195152E0,1.657797725E0
1.638800123E0,2.325676829E-1,-5.030083656E-1,-2.144185066E0,2.214640996E0
1.656905043E0,6.205154955E-2,-3.835980296E-1,-2.379186630E0,2.410710863E0
1.675008008E0,2.738076448E-2,-3.745396435E-1,-2.030826569E0,2.065256934E0
1.693109632E0,1.609537303E-1,-3.689657450E-1,-1.547741890E0,1.599233186E0
1.711214795E0,2.450312674E-1,-4.723307490E-1,-1.265306473E0,1.372638747E0
1.729316602E0,2.611549497E-1,-5.450428724E-1,-1.141470909E0,1.291599581E0
1.747414136E0,-1.209911108E0,-1.012674928E0,-9.439954758E-1,1.838619824E0
1.765515088E0,1.123087645E0,9.970343113E-2,-1.322670937E0,1.738023313E0
1.783628430E0,6.794576645E-1,-4.360980392E-1,-8.826217651E-1,1.196187861E0
1.801728407E0,8.573196530E-1,-3.081556559E-1,-3.126144409E-2,9.115559081E-1
1.819831313E0,3.564670384E-1,-7.544260025E-1,5.545816422E-1,1.001892280E0
1.837934096E0,2.173063904E-1,-7.408509254E-1,7.951908112E-1,1.108336856E0
1.856036817E0,3.447466195E-1,-8.444869518E-1,4.006843567E-1,9.962712468E-1
1.874140089E0,5.282557607E-1,-7.657037377E-1,4.245758057E-1,1.022556100E0
1.892241530E0,3.272761703E-1,-8.193589449E-1,3.045806885E-1,9.333960403E-1
1.910347853E0,-5.028200150E-2,-8.152382970E-1,1.657667160E-1,8.334388788E-1
1.928447706E0,2.331977189E-1,-8.302925825E-1,9.383964539E-2,8.675095548E-1
1.946539809E0,7.971214056E-1,-1.019384265E0,1.161149979E0,1.738624769E0
1.964654677E0,9.227396846E-1,-1.524172902E0,3.045774460E0,3.528639061E0
1.982757338E0,-1.189043820E-1,-2.140964508E0,4.297306061E0,4.802572921E0
2.000860121E0,-8.995999694E-1,-2.162656784E0,4.621940613E0,5.181573072E0
2.018963331E0,-3.213381469E-1,-1.601967335E0,2.901034355E0,3.329498142E0
2.037066176E0,7.093521357E-1,-9.856919646E-1,8.718214035E-1,1.494938681E0
2.055168897E0,1.053457975E0,-5.004000068E-1,1.326065063E-1,1.173779519E0
2.073269238E0,6.324270964E-1,-3.025220037E-1,-9.327888489E-2,7.072372624E-1
2.091380445E0,1.128028631E-1,-2.060164809E-1,-2.043199539E-1,3.113100061E-1
2.109474805E0,-3.728131652E-1,-2.371986210E-1,-4.226388931E-1,6.114543940E-1
2.127583510E0,-9.558393359E-1,-4.505212903E-1,-4.235877991E-1,1.138430891E0
2.145678969E0,-1.191463470E0,-7.496108413E-1,-3.523550034E-1,1.451087752E0
2.163786573E0,-1.088571310E0,-9.455902576E-1,1.071929932E-2,1.441958160E0
2.181889112E0,-7.472926974E-1,-9.853583574E-1,5.872383118E-1,1.369023850E0
2.199992139E0,-5.018566847E-1,-8.499420285E-1,4.208927155E-1,1.073038798E0
2.218090590E0,-2.803158462E-1,-5.934454799E-1,-1.985187531E-1,6.856852095E-1
2.236186475E0,-4.201227427E-2,-3.195958138E-1,-8.760251999E-1,9.334488021E-1
2.254300795E0,1.594493538E-1,-5.171202123E-2,-1.504363060E0,1.513673163E0
2.272402600E0,2.527493238E-1,1.838485599E-1,-1.997714996E0,2.022015757E0
2.290495985E0,1.457381546E-1,2.961194515E-1,-2.394439220E0,2.417077889E0
2.308610915E0,-1.543596387E-1,3.527429104E-1,-2.403207779E0,2.433857450E0
2.326711378E0,-2.991296649E-1,3.486830890E-1,-2.159331322E0,2.207661706E0
2.344812270E0,-3.721883893E-1,2.561799884E-1,-1.717143059E0,1.775593610E0
2.362918653E0,-4.844782948E-1,9.730356932E-2,-1.298675537E0,1.389512632E0
2.381021436E0,-5.199604034E-1,-4.258647561E-2,-1.087863922E0,1.206490921E0
2.399124097E0,-4.569672644E-1,-1.597886384E-1,-1.085604668E0,1.188650068E0
2.417227247E0,-4.039819837E-1,-2.027233392E-1,-8.551874161E-1,9.672867786E-1
2.435330030E0,-4.515731633E-1,-2.613103092E-1,-3.314733505E-1,6.181229502E-1
2.453435255E0,-4.045588970E-1,-2.970679998E-1,1.476831436E-1,5.231898399E-1
2.471536206E0,-3.068041205E-1,-1.677819788E-1,1.809644699E-1,3.937355714E-1
2.489638868E0,-3.818376064E-1,-1.123580337E-1,-1.263551712E-1,4.176001852E-1
2.507742689E0,-7.427103519E-1,-2.559241354E-1,-2.373743057E-1,8.206475437E-1
2.525843458E0,-1.209309936E0,-5.371981859E-1,-4.768753052E-2,1.324117258E0
2.543947706E0,-1.396546364E0,-7.412670851E-1,3.636579514E-1,1.622364245E0
2.562050855E0,-1.402997375E0,-1.099277020E0,8.375368118E-1,1.969334789E0
2.580141675E0,-9.790387750E-1,-1.332485557E0,1.669506073E0,2.349741520E0
2.598251295E0,-5.098695755E-1,-1.417823195E0,3.100196838E0,3.446942128E0
2.616359327E0,-2.610569000E-1,-1.452493548E0,3.883404732E0,4.154361627E0
2.634461866E0,-4.732316732E-2,-1.310099006E0,3.697344780E0,3.922876153E0
2.652563795E0,9.967505932E-3,-1.087484121E0,2.603716850E0,2.821712689E0
2.670669081E0,-8.828765154E-2,-9.235632420E-1,1.354913712E0,1.642119039E0
2.688770826E0,-2.674185932E-1,-8.337340355E-1,4.245929718E-1,9.730900974E-1
2.706873975E0,-4.293386936E-1,-9.872629046E-1,2.059326172E-1,1.096096711E0
2.724971938E0,-6.903325319E-1,-1.313783169E0,7.266616821E-1,1.652459506E0
2.743079786E0,-9.072574377E-1,-1.664010048E0,1.190596581E0,2.238205914E0
2.761182325E0,-9.407969713E-1,-1.773460031E0,1.017613411E0,2.250732431E0
2.779281324E0,-9.709380865E-1,-1.762081742E0,7.948398590E-2,2.013447426E0
2.797386366E0,-1.176354289E0,-1.715842366E0,-9.114637375E-1,2.271275101E0
2.815492995E0,-1.229338408E0,-1.666421175E0,-1.480747223E0,2.545750339E0
2.833593946E0,-1.058058262E0,-1.614664078E0,-1.625314713E0,2.523544191E0
2.851695753E0,-8.461527824E-1,-1.594512582E0,-1.561141014E0,2.386546914E0
2.869801283E0,-6.677350402E-1,-1.461323023E0,-1.514012337E0,2.207616003E0
2.887902784E0,-6.595559716E-1,-1.305811167E0,-1.826589584E0,2.340210758E0
2.906005873E0,-7.445060611E-1,-1.168378353E0,-2.425296783E0,2.793109690E0
2.924091078E0,-8.032131791E-1,-1.039499164E0,-2.611262321E0,2.923080709E0
2.942211866E0,-7.108781934E-1,-9.618951082E-1,-2.213391304E0,2.515887730E0
2.960313733E0,-4.983313680E-1,-8.499225974E-1,-1.748873711E0,2.007302127E0
2.978418959E0,-3.596375585E-1,-7.281552553E-1,-1.550923347E0,1.750689144E0
2.996520400E0,-2.708426416E-1,-6.122577190E-1,-1.535563469E0,1.675162803E0
3.014623061E0,-2.218289673E-2,-5.380077362E-1,-1.437912941E0,1.535427638E0
3.032726332E0,4.506445527E-1,-5.115833282E-1,-1.069231033E0,1.268090303E0
3.050829297E0,8.371151686E-1,-4.172449112E-1,-6.130075455E-1,1.118317206E0
3.068932143E0,8.115769029E-1,-5.832071304E-1,-3.933763504E-1,1.074026340E0
3.087034864E0,4.987390041E-1,-9.651470780E-1,7.045087814E-1,1.294828985E0
3.105133130E0,2.346416116E-1,-1.459189415E0,2.890954018E0,3.246830080E0
3.123240674E0,-6.911292672E-3,-1.693077683E0,4.617203712E0,4.917837933E0
3.141340406E0,-4.607520103E-1,-1.762307048E0,4.057784081E0,4.447879291E0
3.159450147E0,-9.400539398E-1,-1.491796494E0,2.013243675E0,2.676248920E0
3.177542006E0,-1.183320045E0,-8.704003096E-1,1.028242111E-1,1.472554192E0
3.195640821E0,-1.492160201E0,-4.825025201E-1,-1.110011101E0,1.921321262E0
3.213743788E0,-1.748785257E0,-3.431267142E-1,-1.109768867E0,2.099422006E0
3.231849805E0,-1.919634581E0,-4.766200781E-1,-4.618692398E-1,2.031129444E0
3.249964368E0,-2.409430504E0,-1.056205511E0,-2.227478027E-1,2.640178406E0
3.268054029E0,-2.421845198E0,-1.936503291E0,8.387298584E-1,3.212296209E0
3.286166944E0,-1.609089136E0,-2.513660192E0,3.042282104E0,4.261823062E0
3.304269971E0,-7.263609767E-1,-2.284858942E0,4.506227493E0,5.104338045E0
3.322373061E0,-1.073618054E0,-1.839013696E0,4.380703926E0,4.870851464E0
3.340475294E0,-1.888029814E0,-1.434611320E0,2.180662155E0,3.221498666E0
3.358578871E0,-2.451232672E0,-1.028514981E0,-5.380582809E-1,2.712174661E0
3.376681410E0,-2.697799444E0,-8.172799349E-1,-2.196750641E0,3.573762962E0
3.394780654E0,-2.691621304E0,-9.171359539E-1,-2.386372566E0,3.712241590E0
3.412887465E0,-2.462618351E0,-1.118097663E0,-1.636365891E0,3.161063880E0
3.430990552E0,-2.030715942E0,-1.167800188E0,-8.353338242E-1,2.487035809E0
3.449090346E0,-1.586582661E0,-1.080894351E0,-5.083541870E-1,1.985950935E0
3.467196423E0,-1.264382958E0,-9.437618256E-1,-7.548685074E-1,1.749050346E0
3.485298476E0,-1.021033168E0,-7.273131013E-1,-1.218114853E0,1.747940752E0
3.503402783E0,-8.730009794E-1,-5.116612911E-1,-1.861566067E0,2.118810092E0
3.521505019E0,-8.570001721E-1,-2.587167919E-1,-2.340625286E0,2.505974941E0
3.539607680E0,-1.071493506E0,-1.016279161E-1,-2.521368980E0,2.741482829E0
3.557695326E0,-1.327581406E0,1.459899545E-2,-2.447356224E0,2.784284110E0
3.575813672E0,-1.451358795E0,8.748719096E-2,-2.432789803E0,2.834177585E0
3.593916700E0,-1.390430450E0,1.485248804E-1,-2.376060963E0,2.756995135E0
3.612006604E0,-1.301392198E0,1.269629300E-1,-2.322679520E0,2.665442063E0
3.630123732E0,-1.212589502E0,5.351665616E-2,-2.062825203E0,2.393425401E0
3.648225416E0,-1.043011785E0,3.239975870E-2,-1.536115646E0,1.857033819E0
3.666328261E0,-7.779977322E-1,-9.811617434E-3,-8.908987045E-1,1.182825955E0
3.684431410E0,-4.720054567E-1,-8.260945231E-2,4.602146149E-2,4.813849267E-1
3.702534193E0,-2.448975146E-1,-4.218224436E-2,1.013147354E0,1.043178650E0
3.720636915E0,-2.242707014E-1,4.612909257E-2,1.211256981E0,1.232707879E0
3.738740248E0,-3.687990904E-1,2.753488719E-2,8.998823166E-1,9.729127005E-1
3.756843031E0,-8.218550682E-1,-1.455794722E-1,9.561958313E-1,1.269231895E0
3.774945693E0,-1.325033665E0,-3.450055718E-1,1.628289223E0,2.127455957E0
3.793046950E0,-1.719184875E0,-7.540199161E-1,2.577373505E0,3.188572855E0
3.811152419E0,-1.751986742E0,-1.149292707E0,3.603873253E0,4.168720870E0
3.829255384E0,-1.752854109E0,-1.393943667E0,4.467180252E0,4.997126762E0
3.847357802E0,-1.762520671E0,-1.505855918E0,3.774564743E0,4.429607224E0
3.865460341E0,-1.650890231E0,-1.510445952E0,2.874062538E0,3.642405936E0
3.883563490E0,-1.240072846E0,-1.342136979E0,2.388081551E0,3.006999472E0
3.901666212E0,-6.677885056E-1,-1.055188656E0,1.514415741E0,1.962860062E0
3.919769117E0,-3.549075425E-1,-7.033548355E-1,3.317909241E-1,8.548406902E-1
3.937867628E0,-3.077501655E-1,-4.658601880E-1,-6.272830963E-1,8.397737565E-1
3.955961133E0,-5.133334994E-1,-5.040462017E-1,-1.020940781E0,1.248957138E0
3.974075025E0,-7.875400782E-1,-7.290999293E-1,-9.270954132E-1,1.418207314E0
3.992184034E0,-8.518785834E-1,-9.613638520E-1,-1.064616203E0,1.668330074E0
4.010283277E0,-7.889765501E-1,-1.106485724E0,-1.269943237E0,1.859986688E0
4.028385389E0,-6.552042961E-1,-1.198093176E0,-1.232444763E0,1.839467320E0
4.046491956E0,-4.380711019E-1,-1.214513540E0,-8.760557175E-1,1.560263776E0
4.064592543E0,-1.855298281E-1,-1.094788671E0,-6.600875854E-1,1.291781394E0
4.082695448E0,2.019727975E-2,-8.997799754E-1,-9.496459961E-1,1.308372826E0
4.100798354E0,1.297613233E-1,-6.106177568E-1,-1.594099045E0,1.711970739E0
4.118900404E0,1.350938082E-1,-3.960387707E-1,-2.258141994E0,2.296584924E0
4.136999526E0,1.128541753E-1,-2.459149659E-1,-2.399225235E0,2.414434088E0
4.155091689E0,8.838442713E-2,-1.972261965E-1,-2.053010941E0,2.064355566E0
4.173210219E0,1.227778792E-1,-2.133133858E-1,-1.384918213E0,1.406618450E0
4.191311902E0,1.944408566E-1,-2.076515108E-1,-1.036442757E0,1.074774388E0
4.209417312E0,2.990026474E-1,-1.105527282E-1,-1.009002686E0,1.058163933E0
4.227519179E0,4.899378419E-1,4.377499223E-3,-9.286851883E-1,1.050006872E0
4.245622022E0,7.116860747E-1,1.197244972E-1,-5.319471359E-1,8.965482584E-1
4.263724745E0,8.305536509E-1,1.884603202E-1,-6.253528595E-2,8.539597890E-1
4.281828139E0,8.090373278E-1,2.129982412E-1,4.720592499E-1,9.605985550E-1
4.299915113E0,5.951154232E-1,9.281392395E-2,7.985839844E-1,1.000256553E0
4.318030897E0,1.636940241E-1,-1.004047617E-1,7.959966660E-1,8.188330367E-1
4.336139419E0,-4.727477431E-1,-2.655026615E-1,5.476846695E-1,7.706754110E-1
4.354239516E0,-1.214043617E0,-5.937168598E-1,4.437084198E-1,1.422420042E0
4.372342481E0,-1.601972818E0,-8.177641630E-1,7.360191345E-1,1.943393759E0
4.390445570E0,-1.580188870E0,-9.705373049E-1,1.337031364E0,2.286174183E0
4.408548598E0,-1.380944133E0,-1.065853000E0,2.116009712E0,2.742361467E0
4.426651441E0,-1.082786679E0,-9.197735786E-1,2.466867447E0,2.846725387E0
4.444744154E0,-9.392585158E-1,-7.696979642E-1,2.799752235E0,3.051762457E0
4.462857252E0,-1.346396446E0,-9.666540623E-1,3.278430939E0,3.673596723E0
4.480960219E0,-1.608160496E0,-1.138694167E0,3.793704033E0,4.274926301E0
4.499063246E0,-1.368322253E0,-8.972422481E-1,3.626095772E0,3.978180487E0
4.517159559E0,-1.308429003E0,-5.058271289E-1,2.431077957E0,2.806775298E0
4.535270583E0,-1.405309081E0,-1.152139604E-1,4.587030411E-1,1.482759707E0
4.553372022E0,-1.406588793E0,1.956901550E-1,-1.279967308E0,1.911832361E0
4.571473707E0,-1.371497512E0,2.546609640E-1,-2.156982899E0,2.568741493E0
4.589579115E0,-1.479810476E0,1.516388357E-1,-1.747594833E0,2.294977360E0
4.607680616E0,-1.461810350E0,5.809721351E-2,-1.318974495E0,1.969761027E0
4.677812758E0,-1.080754161E0,1.296526492E-1,-1.545257568E0,1.890148227E0
4.695931349E0,-8.589119911E-1,2.132500410E-1,-1.725667000E0,1.939363809E0
4.714034927E0,-5.869126320E-1,2.081345618E-1,-2.030367851E0,2.123718448E0
4.732137465E0,-4.840653539E-1,1.032513678E-1,-2.121143341E0,2.178125154E0
4.750237746E0,-4.384738207E-1,-3.207120299E-2,-1.758009911E0,1.812149745E0
4.768345962E0,-4.430632591E-1,-1.964063942E-1,-1.400393486E0,1.481884759E0
4.786446548E0,-4.155429006E-1,-2.531100810E-1,-1.291011810E0,1.379656519E0
4.804549574E0,-3.550737500E-1,-2.557210028E-1,-1.368326187E0,1.436588721E0
4.822652359E0,-2.740093470E-1,-1.939414740E-1,-1.440823555E0,1.479414389E0
4.840755324E0,-1.454372853E-1,-1.048636138E-1,-1.283284187E0,1.295749469E0
4.858858474E0,-7.594244182E-2,-2.640839666E-2,-1.177946091E0,1.180686940E0
4.876951858E0,-7.538843155E-2,1.057209820E-2,-1.168035507E0,1.170513618E0
4.895058303E0,-7.038509846E-2,1.372283101E-1,-1.029243469E0,1.040734255E0
4.913164321E0,-1.358363628E-1,2.844855189E-1,-9.237480164E-1,9.760604109E-1
4.931274428E0,-2.856830657E-1,4.092533290E-1,-8.769693375E-1,1.009048225E0
4.949373306E0,-6.079108119E-1,4.974550903E-1,-8.167133331E-1,1.133153913E0
4.967471510E0,-1.003374696E0,4.833262563E-1,-6.662654877E-1,1.297796113E0
4.985578749E0,-1.384742737E0,4.058573842E-1,-4.769382477E-1,1.519770626E0
5.003682388E0,-1.634786606E0,2.391854972E-1,5.782985687E-2,1.653203327E0
5.021773025E0,-1.580376387E0,7.114113122E-2,8.103933334E-1,1.777466719E0
5.039889052E0,-1.067902207E0,2.040903568E-1,1.069408417E0,1.525025364E0
5.057990737E0,-8.618067503E-1,2.135237008E-1,1.658076286E0,1.880829662E0
5.076082595E0,-1.047203660E0,-1.636328101E-1,2.586400032E0,2.795152291E0
5.094196120E0,-9.197788239E-1,-4.675700963E-1,3.481482506E0,3.631161704E0
5.112300429E0,-8.636195064E-1,-8.566823006E-1,3.799605370E0,3.989579449E0
5.130402541E0,-1.603195667E0,-1.582675219E0,2.779834747E0,3.578069091E0
5.148506179E0,-2.243148327E0,-2.044363260E0,1.688820839E0,3.473219167E0
5.166608841E0,-1.949394703E0,-2.039047241E0,1.370806694E0,3.136393526E0
5.184708022E0,-1.294245601E0,-2.109456778E0,1.517319679E0,2.902953424E0
5.202814711E0,-9.680989981E-1,-2.224905729E0,2.412855148E0,3.421884151E0
5.220917739E0,-8.424351811E-1,-2.213888884E0,1.891652107E0,3.031393857E0
5.239018874E0,-5.860274434E-1,-1.832278013E0,2.106294632E-1,1.935209460E0
5.254985363E0,-2.718117237E-1,-1.144907951E0,-1.542002678E0,1.939708248E0
5.272966048E0,-3.717954457E-1,-1.021677852E0,-1.523343086E0,1.871531898E0
5.291069808E0,-3.476432860E-1,-8.135019541E-1,-1.619631767E0,1.845494065E0
5.309171705E0,-3.875505924E-1,-6.502388120E-1,-1.819482803E0,1.970665787E0
5.327274825E0,-5.970956087E-1,-6.020690799E-1,-1.679165840E0,1.881118886E0
5.345373396E0,-6.298192739E-1,-5.447231531E-1,-1.353745461E0,1.589346533E0
5.363473464E0,-2.544294298E-1,-3.864741921E-1,-1.212021828E0,1.297340952E0
5.381584182E0,-1.339554787E-3,-2.296805680E-1,-1.070579529E0,1.094940859E0
5.399686934E0,-1.186031103E-2,-9.228985012E-2,-8.831338882E-1,8.880222677E-1
5.417790114E0,-3.242059946E-1,2.568647265E-3,-7.183685303E-1,7.881430518E-1
5.435891402E0,-6.352272034E-1,6.495568156E-2,-7.653141022E-1,9.967138584E-1
5.453996382E0,-6.844673157E-1,1.959198713E-1,-6.618824005E-1,9.720948587E-1
5.472098250E0,-6.743254066E-1,2.344147712E-1,-4.210329056E-1,8.288146635E-1
5.490204421E0,-6.403670311E-1,3.138451874E-1,4.555320740E-2,7.145934725E-1
5.508305007E0,-7.147869468E-1,3.825418651E-1,2.671804428E-1,8.536064942E-1
5.526408186E0,-8.059321642E-1,4.727941155E-1,-4.469299316E-2,9.354455583E-1
5.544510909E0,-8.556187153E-1,5.730986595E-1,-6.893892288E-1,1.239267109E0
5.562597976E0,-7.980638742E-1,6.629369259E-1,-1.306894302E0,1.668641373E0
5.580716017E0,-6.466726661E-1,6.826485991E-1,-1.276830673E0,1.585714733E0
5.598821029E0,-5.621807575E-1,5.642974377E-1,-7.482614517E-1,1.092874193E0
5.616923629E0,-5.102413893E-1,4.149097800E-1,-3.468008041E-1,7.434831529E-1
5.635026198E0,-3.887529075E-1,3.236708641E-1,-4.128503799E-1,6.529449346E-1
5.653128950E0,-3.021135330E-1,3.159502745E-1,-7.686376572E-1,8.842516671E-1
5.671232131E0,-4.771796465E-1,2.225850224E-1,-8.591117859E-1,1.007629678E0
5.689334883E0,-6.608586311E-1,2.337078750E-2,-4.362707138E-1,7.922199567E-1
5.707442519E0,-8.863495588E-1,-2.925696373E-1,3.772449493E-1,1.006740426E0
5.725541060E0,-1.289724827E0,-6.761659384E-1,1.077682495E0,1.811626359E0
5.743644270E0,-1.726794004E0,-9.818480611E-1,1.318407059E0,2.384122547E0
5.761746963E0,-2.074319839E0,-1.031511426E0,1.028677940E0,2.534757764E0
5.779849929E0,-2.127656221E0,-9.506477714E-1,7.549953461E-1,2.449626534E0
5.797952986E0,-2.295549154E0,-9.893062711E-1,6.061162949E-1,2.572090547E0
5.816056838E0,-2.323351622E0,-1.122134447E0,1.174775124E0,2.835003539E0
5.834159102E0,-2.218752861E0,-1.521411419E0,1.945923805E0,3.320267522E0
5.852262312E0,-1.839191079E0,-1.846623659E0,3.167907715E0,4.102228913E0
5.870348464E0,-1.472982883E0,-1.882170081E0,4.233699799E0,4.861733927E0
5.888468520E0,-1.547313690E0,-1.514022470E0,3.811885834E0,4.383710449E0
5.906559676E0,-2.015482426E0,-1.107099533E0,2.010314941E0,3.054374723E0
5.924668502E0,-2.363637924E0,-6.146187782E-1,-3.187179565E-2,2.442448831E0
5.942778456E0,-2.775939941E0,-1.999025941E-1,-1.543708801E0,3.182583930E0
5.960880293E0,-3.352358103E0,-1.985024810E-1,-2.366479397E0,4.108276137E0
5.978982283E0,-3.605419159E0,-4.265122414E-1,-2.396175385E0,4.350013388E0
5.997087081E0,-3.303295374E0,-7.188622355E-1,-1.867669582E0,3.862216062E0
6.015189314E0,-2.406566381E0,-8.221489787E-1,-9.921588898E-1,2.729811340E0
6.033292434E0,-1.570040226E0,-7.840459347E-1,-4.234638214E-1,1.805291098E0
6.051380690E0,-1.022771001E0,-5.904492140E-1,-4.217214584E-1,1.254009483E0
6.069498946E0,-6.321781278E-1,-2.504134774E-1,-8.507928848E-1,1.089130216E0
6.087601638E0,-4.323644340E-1,7.948452234E-2,-1.313607216E0,1.385215041E0
6.105704573E0,-4.960355461E-1,3.217749596E-1,-1.412803650E0,1.531536660E0
6.123806807E0,-6.059139967E-1,5.504910350E-1,-1.320733070E0,1.553868718E0
6.141911208E0,-8.935602307E-1,6.895397902E-1,-1.437525749E0,1.827674831E0
6.160013503E0,-1.082575679E0,8.158031106E-1,-1.607099533E0,2.102444702E0
6.178116682E0,-1.049358010E0,9.135549664E-1,-1.613012314E0,2.130151083E0
6.196215987E0,-9.260077477E-1,8.964115977E-1,-1.347034454E0,1.864281610E0
6.214322585E0,-9.364573956E-1,7.358374596E-1,-7.815046310E-1,1.424485419E0
6.232429030E0,-1.042397499E0,6.133635044E-1,-1.318187714E-1,1.216627931E0
6.250517317E0,-1.113482952E0,5.229620934E-1,1.771335602E-1,1.242863602E0
6.268631484E0,-1.055889606E0,4.803223610E-1,3.233814240E-1,1.204237509E0
6.286734724E0,-1.067416430E0,4.562612772E-1,6.299276352E-1,1.320742599E0
6.304832839E0,-1.078836918E0,4.971343279E-1,9.991083145E-1,1.552175589E0
6.322940871E0,-1.173976541E0,4.457610846E-1,1.088233948E0,1.661678966E0
6.341043654E0,-1.443722129E0,1.893725395E-1,1.120402336E0,1.837252552E0
6.359146834E0,-1.655711651E0,3.347420692E-2,1.194111824E0,2.041667123E0
6.377249800E0,-1.722519159E0,1.623561382E-1,7.704372406E-1,1.893939099E0
6.395351301E0,-1.583759308E0,3.570381999E-1,1.794729233E-1,1.633395345E0
6.413454238E0,-1.263996959E0,5.617343187E-1,2.914991379E-1,1.413578970E0
6.431551986E0,-1.204954028E0,4.748886824E-1,1.233545303E0,1.788593717E0
6.449652083E0,-1.201719642E0,1.533499956E-1,2.575608253E0,2.846296575E0
6.467765059E0,-1.125973463E0,-1.303225756E-1,3.033607483E0,3.238452497E0
6.485867873E0,-1.040673375E0,-1.689976454E-1,2.227756500E0,2.464642023E0
6.503971023E0,-7.476890087E-1,9.912395477E-2,1.112898827E0,1.344398829E0
6.522074294E0,-4.168510437E-1,3.963312507E-1,5.327386856E-1,7.839985714E-1
6.540165786E0,-4.622642398E-1,4.858311415E-1,3.845443726E-1,7.730423662E-1
6.558279342E0,-5.934693813E-1,4.073687792E-1,3.189401627E-1,7.873233492E-1
6.576383986E0,-5.993193984E-1,3.132493496E-1,-1.791000366E-2,6.764833069E-1
6.594477858E0,-6.117932796E-1,2.840061188E-1,-4.218187332E-1,7.955385196E-1
6.612585371E0,-7.503198385E-1,2.065620422E-1,-7.715978622E-1,1.095906473E0
6.630679396E0,-8.421494961E-1,1.655131578E-1,-7.588052750E-1,1.145598457E0
6.648784316E0,-6.324179769E-1,2.070983648E-1,-6.670827866E-1,9.422535085E-1
6.666899886E0,-4.276335835E-1,2.574573755E-1,-7.059707642E-1,8.646094505E-1
6.685001723E0,-2.389522493E-1,3.344591558E-1,-7.605876923E-1,8.645546495E-1
6.703104201E0,-1.283709705E-1,3.607666790E-1,-7.741613388E-1,8.636883010E-1
6.721207564E0,-1.454396546E-1,3.663078249E-1,-9.357566833E-1,1.015369236E0
6.739297529E0,-3.716304302E-1,3.817542195E-1,-1.192926407E0,1.306491054E0
6.757402754E0,-4.163461328E-1,5.263850689E-1,-1.143139839E0,1.325591956E0
6.775506362E0,-1.169164181E-1,7.200546265E-1,-9.184026718E-1,1.172864690E0
6.793609450E0,3.135794401E-1,1.018260837E0,-8.211336136E-1,1.345157094E0
6.811711897E0,5.397065878E-1,1.248088121E0,-1.052930832E0,1.719787922E0
6.829814528E0,4.466447532E-1,1.319240212E0,-9.942770004E-1,1.711278185E0
6.847917983E0,1.946620941E-1,1.220463514E0,-4.629840851E-1,1.319764670E0
6.866021193E0,1.562534869E-1,1.133088827E0,4.897499084E-2,1.144859813E0
6.884126601E0,1.852988303E-1,1.080645084E0,3.463401794E-1,1.149817801E0
6.902227309E0,1.408750415E-1,9.822599888E-1,3.476171494E-1,1.051436230E0
6.920341871E0,5.523383617E-2,8.438313007E-1,3.122940063E-1,9.014596980E-1
6.938448165E0,2.002111077E-2,7.663822770E-1,3.596382141E-1,8.468071117E-1
6.956547102E0,-1.483599246E-1,5.733070970E-1,2.819538116E-1,6.558884406E-1
6.974650802E0,-1.758432388E-1,5.496254563E-1,2.074279785E-1,6.132172153E-1
6.992753096E0,5.125580728E-2,8.143538237E-1,-2.266216278E-2,8.162799039E-1
7.010855726E0,-4.795551300E-2,9.501612186E-1,-2.663793564E-1,9.879595306E-1
7.028959640E0,-5.353652835E-1,8.615310192E-1,-6.021375656E-1,1.179585237E0
7.047062422E0,-1.434199810E0,1.108519435E-1,-3.601245880E-1,1.482871190E0
7.065165022E0,-1.603596926E0,-5.565478802E-1,1.116809845E0,2.031879148E0
7.083256423E0,-1.251173258E0,-1.215902448E0,3.160251617E0,3.609853677E0
7.101370955E0,-7.887375951E-1,-1.292266369E0,4.148903847E0,4.416498895E0
7.119475082E0,-6.329094768E-1,-9.443757534E-1,2.889537811E0,3.105132643E0
7.137577285E0,-1.218798459E-1,-3.501901627E-1,1.225154877E0,1.280036062E0
7.155680495E0,2.964204550E-1,1.866419315E-1,8.311738968E-1,9.019702564E-1
7.173783797E0,-6.609207392E-2,2.406172752E-1,7.847328186E-1,8.234503215E-1
7.191886641E0,-2.605715096E-1,4.446038604E-1,1.325521469E-1,5.321091767E-1
7.209989455E0,-3.201689124E-1,6.804093122E-1,-8.708887100E-1,1.150613797E0
7.228089461E0,-5.103823543E-1,8.579355478E-1,-1.354927063E0,1.682964913E0
7.246195876E0,-7.234603167E-1,9.042786360E-1,-1.114992142E0,1.607582706E0
7.264294173E0,-6.570158601E-1,8.479856253E-1,-8.092470169E-1,1.343737398E0
7.282401778E0,-3.886250556E-1,8.890047073E-1,-6.897239685E-1,1.190410835E0
7.300491743E0,-1.836749613E-1,9.314422011E-1,-9.289627075E-1,1.328266832E0
7.318609511E0,-4.443034530E-2,1.007172823E0,-1.159830093E0,1.536742332E0
7.336699141E0,5.050587654E-2,1.104074597E0,-1.281855583E0,1.692538123E0
7.354814406E0,2.084210515E-3,1.145446301E0,-1.229714394E0,1.680550226E0
7.372917281E0,-3.707313538E-2,1.186173558E0,-1.019144058E0,1.564300719E0
7.391019546E0,-7.365033031E-2,1.207412243E0,-7.429523468E-1,1.419593916E0
7.409124068E0,2.857908607E-3,1.295820832E0,-8.931140900E-1,1.573789241E0
7.427226027E0,-9.388066828E-2,1.281742096E0,-1.236674309E0,1.783546951E0
7.445329513E0,-1.947270483E-1,1.261966467E0,-1.251157761E0,1.787700682E0
7.463432143E0,-2.060263008E-1,1.145715237E0,-8.281755447E-1,1.428630454E0
7.481535598E0,-2.065733820E-1,1.016729236E0,-2.197456360E-1,1.060518291E0
7.499638381E0,-1.583292633E-1,9.719405770E-1,-7.162952423E-2,9.873537510E-1
7.517741560E0,-1.855377257E-1,9.640358686E-1,-2.185201645E-1,1.005753681E0
7.535844558E0,-2.071563452E-1,9.904490709E-1,-1.808452606E-1,1.027914453E0
7.553947676E0,-2.780507505E-1,9.503704906E-1,1.747846603E-1,1.005517760E0
7.572050520E0,-5.284531713E-1,7.678872347E-1,5.094575882E-1,1.062290259E0
7.590153762E0,-8.092046380E-1,5.431231260E-1,6.771287918E-1,1.186717438E0
7.608256758E0,-1.239709973E0,1.565647125E-1,9.548463821E-1,1.572617226E0
7.626360091E0,-1.372058153E0,-2.994142175E-1,1.254772186E0,1.883254016E0
7.644461379E0,-8.246178627E-1,-4.992887378E-1,2.112380981E0,2.321946871E0
7.662563796E0,-4.698069096E-1,-8.084945679E-1,3.268238068E0,3.399376717E0
7.680669296E0,-2.221575975E-1,-9.851298332E-1,3.854594231E0,3.984687123E0
7.698772170E0,-1.239672154E-1,-9.524298906E-1,3.754713058E0,3.875611012E0
7.716863234E0,1.162411645E-1,-5.668133497E-1,2.627389908E0,2.690347024E0
7.734978103E0,2.063546330E-1,-2.042889595E-1,8.141365051E-1,8.643694016E-1
7.753081343E0,1.460259855E-1,1.015166640E-1,-7.717599869E-1,7.919865522E-1
7.771172011E0,2.097480744E-2,1.440715194E-1,-1.189740181E0,1.198615136E0
7.789287612E0,-2.295368016E-1,-8.918410540E-2,-6.278028488E-1,6.743718299E-1
7.807390456E0,-4.553530812E-1,-3.474498987E-1,-8.940029144E-2,5.797070578E-1
7.825493758E0,-5.133674741E-1,-4.787678719E-1,-2.004241943E-2,7.022581699E-1
7.843592055E0,-5.115600824E-1,-4.525742531E-1,-5.607509613E-1,8.837187409E-1
7.861699629E0,-4.901916087E-1,-3.357901573E-1,-1.109148026E0,1.258273494E0
7.879802810E0,-3.464236259E-1,-1.463835835E-1,-1.264104843E0,1.318862592E0
7.897905074E0,-1.460636556E-1,4.385131598E-2,-1.261468887E0,1.270653880E0
7.916011000E0,-7.270953804E-2,2.388289273E-1,-1.379522324E0,1.401930018E0
7.934110946E0,-7.362300158E-2,4.602334499E-1,-1.650851250E0,1.715384803E0
7.952214247E0,-1.978163421E-1,6.357671618E-1,-1.939167976E0,2.050293547E0
7.970318831E0,-3.705410659E-1,7.141258121E-1,-2.026290894E0,2.180167687E0
7.988421706E0,-4.039793909E-1,7.569535375E-1,-1.657571793E0,1.866473213E0
8.006523909E0,-3.566939235E-1,8.054485321E-1,-1.245723724E0,1.525714747E0
8.024626997E0,-3.234359920E-1,8.098625541E-1,-1.104708672E0,1.407433638E0
8.042730330E0,-2.013196796E-1,7.984678745E-1,-1.105216026E0,1.378253614E0
8.060823439E0,3.685057163E-4,7.801103592E-1,-1.002509117E0,1.270274316E0
8.078936202E0,2.139051259E-1,7.037819624E-1,-6.400556564E-1,9.750567659E-1
8.097039382E0,4.510586262E-1,6.659852862E-1,-3.265981674E-1,8.681340039E-1
8.115138045E0,4.182672203E-1,5.943917632E-1,-6.710052490E-2,7.298982917E-1
8.133243392E0,2.668224573E-1,5.285714865E-1,1.529760361E-1,6.115420735E-1
8.151350722E0,1.963638067E-1,5.143738389E-1,4.280347824E-1,6.973901101E-1
8.169451765E0,-1.434798986E-1,3.275629580E-1,6.862297058E-1,7.738185717E-1
8.187555007E0,-6.461679339E-1,-1.218521595E-2,6.239519119E-1,8.983303773E-1
8.205657942E0,-8.514926434E-1,-1.333237886E-1,3.571453094E-1,9.329350065E-1
8.223756026E0,-7.882778645E-1,1.519399434E-1,3.275136948E-1,8.670253504E-1
8.241864150E0,-1.254864454E0,2.365207374E-1,2.253608704E-1,1.296693634E0
8.259966811E0,-1.911970377E0,1.388838589E-1,5.679321289E-2,1.917849034E0
8.278068159E0,-1.812293530E0,-6.952381134E-2,-3.079471588E-1,1.839584967E0
8.296170302E0,-1.874354839E0,-7.563114166E-1,-4.447937012E-3,2.021195885E0
8.314276442E0,-1.536462307E0,-1.665497541E0,1.556200027E0,2.748882865E0
8.332378950E0,-5.278236866E-1,-1.576402664E0,3.595643044E0,3.961349783E0
8.350482100E0,-2.828353643E-1,-1.132131457E0,4.804908752E0,4.944579416E0
8.368585707E0,-7.689793110E-1,-6.601414680E-1,5.030773163E0,5.131841244E0
8.386688338E0,-1.031140327E0,-3.506190777E-1,2.273179054E0,2.520620385E0
8.404776442E0,-1.062472939E0,2.150681019E-1,-5.838260651E-1,1.231241613E0
8.422894728E0,-1.255847216E0,3.876839280E-1,-1.981838703E0,2.378052923E0
8.440997481E0,-1.296693683E0,3.535709381E-1,-1.472298622E0,1.993512013E0
8.459100691E0,-1.065505028E0,2.540312409E-1,-3.210601807E-1,1.141451915E0
8.477201461E0,-6.134847403E-1,2.121043801E-1,2.250041962E-1,6.870070472E-1
8.495309340E0,-3.147433996E-1,2.541971803E-1,-1.099109650E-1,4.192374438E-1
8.513410109E0,-3.504717648E-1,2.489062548E-1,-7.341957092E-1,8.507808890E-1
8.531512771E0,-3.486962318E-1,3.660760224E-1,-1.226518631E0,1.326630570E0
8.549616042E0,-2.640654743E-1,4.774966240E-1,-1.406138420E0,1.508296674E0
8.567719466E0,-2.588884830E-1,5.506808162E-1,-1.303476334E0,1.438514220E0
8.585821975E0,-3.897041678E-1,5.941547751E-1,-1.254737854E0,1.441962662E0
8.603924849E0,-4.609534442E-1,6.469724178E-1,-1.356410027E0,1.571909523E0
8.622027724E0,-3.858681917E-1,6.622360945E-1,-1.345945358E0,1.548876952E0
8.640132277E0,-2.423069030E-1,6.919329166E-1,-1.086301804E0,1.310547750E0
8.658234297E0,-1.393340975E-1,7.158570886E-1,-7.846078873E-1,1.071202548E0
8.676332625E0,-8.664656430E-2,7.715816498E-1,-8.036355972E-1,1.117441740E0
8.694440718E0,-8.033931255E-2,8.062582016E-1,-8.802890778E-1,1.196417800E0
8.712540755E0,5.500476807E-3,8.238124847E-1,-6.610231400E-1,1.056242802E0
8.730634596E0,1.216968447E-1,7.887450457E-1,-3.045215607E-1,8.542026984E-1
8.748747054E0,2.616127133E-1,7.688190341E-1,-1.533889771E-1,8.264696590E-1
8.766851393E0,2.787346840E-1,7.269161940E-1,-1.626138687E-1,7.953260007E-1
8.784957717E0,5.129225552E-2,5.749786496E-1,-1.370677948E-1,5.933118264E-1
8.803054152E0,-6.313939691E-1,3.169491887E-1,1.389923096E-1,7.200236069E-1
8.821162154E0,-1.309596181E0,-2.182645649E-1,4.458065033E-1,1.400508842E0
8.839265273E0,-1.230424881E0,-8.881089091E-1,1.746843338E0,2.313902433E0
8.857368330E0,-9.660008550E-1,-1.380714655E0,3.493950844E0,3.879075033E0
8.875471175E0,-6.346870661E-1,-1.397218704E0,4.027806282E0,4.310251875E0
8.893574507E0,-2.598362565E-1,-1.286036253E0,3.114833832E0,3.379880756E0
8.911677840E0,9.746243060E-2,-9.916318655E-1,2.047904015E0,2.277442323E0
8.929779891E0,5.777672529E-1,-5.987495184E-1,9.299325943E-1,1.247834370E0
8.947884169E0,1.030363917E0,-2.104745507E-1,-1.662302017E-1,1.064697994E0
8.965986556E0,1.209770799E0,-2.213418484E-3,-1.075957298E0,1.619022666E0
8.984089705E0,1.171852708E0,5.511096120E-2,-1.398497581E0,1.825396251E0
9.002192854E0,9.403029680E-1,7.445648313E-3,-1.286102295E0,1.593199367E0
9.020295821E0,7.878310680E-1,-8.588526398E-2,-9.198064804E-1,1.214124389E0
9.038399031E0,8.325892091E-1,-8.742508292E-2,-8.594703674E-1,1.199807171E0
9.056497359E0,9.260017872E-1,-1.104614735E-1,-9.740934372E-1,1.348532191E0
9.074605178E0,9.754780531E-1,-1.925905794E-1,-8.371887207E-1,1.299820571E0
9.092697981E0,1.085460544E0,-2.289532423E-1,-5.747108459E-1,1.249374538E0
9.110810195E0,1.303304911E0,-2.341628671E-1,-3.471794128E-1,1.368930051E0
9.128916030E0,1.539856791E0,-1.590922177E-1,-3.016834259E-1,1.577175374E0
9.147017561E0,1.606066585E0,-1.320245117E-2,-3.015146255E-1,1.634177239E0
9.165120284E0,1.507627249E0,1.058150977E-1,-2.891216278E-1,1.538742367E0
9.183217390E0,1.350035667E0,2.746814489E-1,-3.452587128E-1,1.420299187E0
9.201327925E0,1.308446527E0,4.794424176E-1,-7.366666794E-1,1.576253514E0
9.219429672E0,1.526501656E0,7.100166678E-1,-1.126660347E0,2.025757762E0
9.237532698E0,1.891067624E0,8.371859193E-1,-1.279615402E0,2.431960649E0
9.255631148E0,2.085968256E0,7.884950638E-1,-1.135089874E0,2.502282369E0
9.273739089E0,2.075413704E0,7.079527378E-1,-8.369445801E-1,2.347129172E0
9.291842268E0,2.137572765E0,5.932732821E-1,-7.803068161E-1,2.351609925E0
9.309944686E0,2.276481867E0,5.317010880E-1,-6.176843643E-1,2.417976367E0
9.328048293E0,2.594630003E0,5.581756234E-1,-3.400173187E-1,2.675682465E0
9.346151930E0,2.833731890E0,5.852294564E-1,7.475852966E-3,2.893542090E0
9.364254348E0,2.770431042E0,4.961151481E-1,6.192979813E-1,2.881830735E0
9.382357100E0,2.864874125E0,7.000905871E-1,7.188253403E-1,3.035513210E0
9.400460554E0,2.802582264E0,7.420855761E-1,4.162321091E-1,2.928891858E0
9.418563552E0,1.852423906E0,5.851344019E-2,2.324924469E-1,1.867873360E0
9.436654280E0,8.074177504E-1,-1.020101309E0,1.041887283E0,1.666751096E0
9.454767347E0,6.346917152E-1,-2.041533470E0,2.320657730E0,3.155335922E0
9.472874984E0,1.270709991E0,-2.453844309E0,2.837749481E0,3.960918819E0
9.490975935E0,1.743623972E0,-2.258377552E0,2.904591560E0,4.071504127E0
9.509079299E0,1.814673901E0,-2.004923820E0,1.771627426E0,3.232866318E0
9.527181838E0,2.055350065E0,-1.668134451E0,3.366832733E-1,2.668425016E0
9.545284987E0,2.564031124E0,-1.417872429E0,-4.453935623E-1,2.963611522E0
9.563388503E0,2.960771561E0,-1.312762260E0,-5.656423569E-1,3.287774971E0
9.581479750E0,2.816087246E0,-1.449356318E0,-3.691940308E-1,3.188618093E0
9.599593916E0,2.137355328E0,-1.686292648E0,-5.238628387E-2,2.722979070E0
9.617697097E0,1.561528444E0,-1.756169081E0,2.226839066E-1,2.360527281E0
9.635787275E0,1.324157953E0,-1.561233044E0,3.259830475E-1,2.072946659E0
9.653892226E0,1.348577738E0,-1.320508003E0,1.534395218E-1,1.893659681E0
9.671995559E0,1.479049444E0,-1.274201512E0,-2.101144791E-1,1.963498115E0
9.690110548E0,1.726504326E0,-1.403998971E0,-3.693952560E-1,2.255766644E0
9.708213576E0,2.052643299E0,-1.638924599E0,-5.036039352E-1,2.674515896E0
9.726315871E0,2.229014874E0,-1.846419573E0,-7.390432358E-1,2.987299357E0
9.744418684E0,2.227619886E0,-1.913851023E0,-1.050550461E0,3.119098005E0
9.762518416E0,2.199445963E0,-1.750833750E0,-1.362748146E0,3.124110093E0
9.780624831E0,1.934190273E0,-1.610641599E0,-1.421465874E0,2.890644150E0
9.798728744E0,1.518500686E0,-1.570641875E0,-1.482505798E0,2.640186295E0
9.816830459E0,1.173439980E0,-1.593815565E0,-1.398284912E0,2.423305622E0
9.834934401E0,9.607729316E-1,-1.607370734E0,-1.338421822E0,2.301759821E0
9.853037734E0,8.766661882E-1,-1.655827165E0,-1.440613747E0,2.363403303E0
9.871139571E0,7.700468302E-1,-1.732866287E0,-1.299203873E0,2.298636203E0
9.889243269E0,8.017499447E-1,-1.669534445E0,-1.365900993E0,2.301267859E0
9.963913467E0,1.339046001E0,-1.508747578E0,-1.293191910E-1,2.021407158E0
9.982007704E0,1.625703335E0,-1.686375737E0,3.858203888E-1,2.373948574E0
1.000011110E1,1.977890730E0,-1.795848250E0,-1.107568741E-1,2.673834281E0
1.001821468E1,2.271262646E0,-1.739002466E0,-5.189161301E-1,2.907238816E0
1.003633076E1,2.554178715E0,-1.597249508E0,4.985237122E-2,3.012892324E0
1.005443007E1,2.661226511E0,-1.651660442E0,1.304274559E0,3.392821965E0
1.007253651E1,2.487497330E0,-1.959277630E0,2.232048988E0,3.874074661E0
1.009063850E1,2.341221809E0,-2.070706367E0,3.030018806E0,4.353177964E0
1.010874043E1,2.180721283E0,-2.063956738E0,3.395840645E0,4.532901545E0
1.012683650E1,1.746154904E0,-2.178190231E0,2.689287186E0,3.876317221E0
1.014494093E1,1.443332076E0,-2.175359488E0,1.995748520E0,3.286093203E0
1.016304671E1,1.431731820E0,-2.238788605E0,1.933194160E0,3.286224290E0
1.018115254E1,1.848688006E0,-2.201710224E0,2.203625679E0,3.622311609E0
1.019924519E1,2.205647945E0,-1.984883904E0,1.561196327E0,3.352906343E0
1.021735444E1,1.990514278E0,-1.670490623E0,-3.340721130E-3,2.598595231E0
1.023546297E1,1.455934882E0,-1.493958473E0,-1.273438454E0,2.444034328E0
1.025130434E1,1.193619609E0,-1.430199742E0,-1.040439606E0,2.133708895E0
1.026940663E1,1.433173418E0,-1.478542686E0,-6.228132248E-1,2.151271910E0
1.028749940E1,1.710215330E0,-1.595406294E0,-4.469423294E-1,2.381158366E0
1.030561268E1,1.666112185E0,-1.695269108E0,-4.218444824E-1,2.414087804E0
1.032371614E1,1.165952206E0,-1.886696458E0,-1.787605286E-1,2.225089526E0
1.034181935E1,7.656103969E-1,-1.930371046E0,5.401315689E-1,2.145747834E0
1.035992384E1,7.712348700E-1,-1.889673471E0,8.945989609E-1,2.228447072E0
1.037802333E1,8.328174353E-1,-1.763803720E0,3.341569901E-1,1.978951576E0
1.039611744E1,8.642203808E-1,-1.520972133E0,-6.455307007E-1,1.864656263E0
1.041421950E1,8.011817932E-1,-1.276031852E0,-1.305985451E0,1.993927669E0
1.043232423E1,5.654867291E-1,-1.170995235E0,-1.049367905E0,1.670981173E0
1.045042372E1,3.964640498E-1,-1.126858473E0,-3.878889084E-1,1.255966387E0
1.046853065E1,4.313930869E-1,-1.131516218E0,-4.507780075E-1,1.292141540E0
1.048663380E1,4.987897575E-1,-9.806867242E-1,-7.747774124E-1,1.345666271E0
1.050473524E1,4.925195873E-1,-7.867609262E-1,-1.059412003E0,1.408517693E0
1.052283876E1,6.170971990E-1,-5.285178423E-1,-9.550237656E-1,1.253878166E0
1.054094240E1,7.265332937E-1,-3.604064584E-1,-5.628404617E-1,9.871842926E-1
1.055904445E1,7.339461446E-1,-3.218781948E-1,8.769989014E-3,8.014732860E-1
1.057714870E1,6.856686473E-1,-2.233052850E-1,3.652801514E-1,8.083540890E-1
1.059526051E1,6.947373152E-1,1.067271903E-1,1.702556610E-1,7.232133989E-1
1.061336531E1,-1.108929589E-1,3.996977583E-2,-1.906137466E-1,2.241170046E-1
1.063146846E1,-1.348596096E0,-6.259363890E-1,-5.425434113E-1,1.582675313E0
1.064957130E1,-1.501382351E0,-1.172832370E0,8.190479279E-1,2.073770537E0
1.066767433E1,-5.889332294E-1,-1.554841518E0,2.522203445E0,3.020907929E0
1.068577766E1,1.063486189E-1,-1.410270452E0,3.382569313E0,3.666326218E0
1.070387916E1,-1.188044995E-1,-1.217173100E0,2.920391083E0,3.166118908E0
1.072198176E1,-3.897069991E-1,-9.487473965E-1,1.674888611E0,1.963987023E0
1.074008864E1,-4.857341945E-1,-8.682526350E-1,3.535690308E-1,1.055846298E0
1.075818971E1,-4.221436381E-1,-9.721115828E-1,-2.735557556E-1,1.094549648E0
1.077629268E1,-4.159413874E-1,-1.053731680E0,-2.296190262E-1,1.155890388E0
1.079439320E1,-4.531419277E-1,-1.069022655E0,-1.472969055E-1,1.170403103E0
1.081250166E1,-7.012215853E-1,-9.520756006E-1,-9.083557129E-2,1.185921904E0
1.083060182E1,-1.064022303E0,-8.293819427E-1,-4.048280716E-1,1.408511141E0
1.084868782E1,-1.140051365E0,-6.145555973E-1,-9.663152695E-1,1.615908691E0
1.086680812E1,-9.324259162E-1,-3.689643443E-1,-1.575817108E0,1.867820209E0
1.088491108E1,-7.452353239E-1,-1.875440478E-1,-1.774852753E0,1.934076201E0
1.090301448E1,-6.727259159E-1,-1.647412777E-1,-1.328634262E0,1.498322011E0
1.092111696E1,-7.140959501E-1,-2.560112178E-1,-6.961784363E-1,1.029630606E0
1.093922047E1,-6.636939049E-1,-2.418995500E-1,-5.972423553E-1,9.250423897E-1
1.095732350E1,-5.516004562E-1,-1.556851119E-1,-1.037261009E0,1.185078613E0
1.097542189E1,-6.400159597E-1,-4.489554465E-2,-1.341965675E0,1.487450138E0
1.099352962E1,-8.091847301E-1,8.755899966E-3,-1.159781456E0,1.414195750E0
1.101163258E1,-7.815679312E-1,-2.925337851E-2,-8.141288757E-1,1.128941990E0
1.102973591E1,-6.497415304E-1,-7.722642273E-2,-3.736448288E-1,7.534841968E-1
1.104782710E1,-6.538507342E-1,-9.151370078E-2,-1.711139679E-1,6.820377776E-1
1.106594117E1,-5.797873735E-1,-7.510477304E-2,-1.719036102E-1,6.093808142E-1
1.108404573E1,-3.392941356E-1,-2.749968320E-2,-2.034263611E-1,3.965589835E-1
1.110214680E1,-6.152626872E-2,2.288735844E-2,-1.582260132E-1,1.713031937E-1
1.112025123E1,1.011848450E-1,-1.222670525E-1,1.696386337E-1,2.323034030E-1
1.113835524E1,3.011776209E-1,-1.892497540E-1,8.512649536E-1,9.225917027E-1
1.115645729E1,4.297946095E-1,-2.761340141E-1,8.025360107E-1,9.513345619E-1
1.117456026E1,4.192769825E-1,-2.676695585E-1,3.100500107E-1,5.861494603E-1
1.119265169E1,1.333212852E-2,-4.688084722E-1,-3.149719238E-1,5.649481764E-1
1.121076350E1,-4.322979450E-1,-7.907429338E-1,1.480007172E-1,9.132689159E-1
1.122887251E1,-3.279631436E-1,-1.111308813E0,1.403487206E0,1.819984461E0
1.124697297E1,-1.747190058E-1,-1.399996758E0,2.787294388E0,3.124024273E0
1.126507564E1,-9.674038738E-2,-1.497977257E0,3.053896904E0,3.402878321E0
1.128317872E1,2.218240872E-3,-1.427219868E0,2.061615944E0,2.507433304E0
1.130128181E1,1.740894318E-1,-1.055830836E0,9.573831558E-1,1.435851104E0
1.131938472E1,3.983013034E-1,-7.190517783E-1,-1.637659073E-1,8.381519317E-1
1.133748787E1,5.523971915E-1,-4.297192693E-1,-5.715656281E-1,9.035975735E-1
1.135559089E1,5.887352228E-1,-2.835349739E-1,-6.168451309E-1,8.986095701E-1
1.137369380E1,5.558456779E-1,-1.486131549E-1,-5.391521454E-1,7.885019488E-1
1.139179689E1,4.318848252E-1,-1.099900901E-1,-6.490097046E-1,7.872965889E-1
1.140989998E1,2.216809094E-1,-8.058859408E-2,-8.554420471E-1,8.873657888E-1
1.142799879E1,-5.503401160E-2,-1.016003788E-1,-1.250127792E0,1.255456442E0
1.144610646E1,-2.588184476E-1,-1.483106315E-1,-1.481985092E0,1.511708585E0
1.146420955E1,-3.007314801E-1,-2.787909210E-1,-1.340202332E0,1.401537046E0
1.148231245E1,-7.544958591E-2,-3.849548399E-1,-7.658901215E-1,8.605059831E-1
1.150041554E1,1.743467152E-1,-4.519141912E-1,-3.959074020E-1,6.255924267E-1
1.151851838E1,3.257187605E-1,-3.359752297E-1,-6.369218826E-1,7.903426792E-1
1.153662135E1,2.797642648E-1,-2.512273192E-1,-1.194882393E0,1.252648052E0
1.155471797E1,2.565781474E-1,-1.610389203E-1,-1.366417885E0,1.399594125E0
1.157283088E1,2.684014440E-1,-9.742766619E-2,-1.132319450E0,1.167766596E0
1.159093086E1,2.926314175E-1,-6.255125999E-2,-8.420400620E-1,8.936315083E-1
1.160903273E1,3.545000255E-1,-5.987563729E-2,-4.407529831E-1,5.687869128E-1
1.162713826E1,4.925503135E-1,-4.572430253E-2,-1.791906357E-1,5.261233763E-1
1.164524025E1,5.033358335E-1,-1.614749432E-2,-2.014999390E-1,5.424112170E-1
1.166334315E1,3.540224731E-1,-3.276816010E-2,-4.474296570E-1,5.714883741E-1
1.168143336E1,2.321742177E-1,-7.120880485E-2,-5.434379578E-1,5.952313627E-1
1.169955025E1,3.366331458E-1,-7.710814476E-2,-3.893108368E-1,5.204137474E-1
1.171764168E1,3.456096351E-1,-1.617737710E-1,-2.393922806E-1,4.504724596E-1
1.173575508E1,4.451372325E-1,-2.453017682E-1,1.728725433E-1,5.368473056E-1
1.175385841E1,5.904556513E-1,-2.562358975E-1,5.539112091E-1,8.491833364E-1
1.177196144E1,8.927140236E-1,-1.257092953E-1,7.017745972E-1,1.142466078E0
1.179006477E1,1.161361575E0,1.704552174E-1,3.867607117E-1,1.235880066E0
1.180816749E1,3.761670589E-1,1.219042540E-1,-3.732290268E-1,5.437482964E-1
1.182627077E1,-8.298425078E-1,-7.554947734E-1,-1.702756882E-1,1.135079182E0
1.184437379E1,-6.379848719E-1,-1.639724374E0,2.169525146E0,2.793306299E0
1.186247694E1,5.119933486E-1,-1.898984194E0,4.307494164E0,4.735270227E0
1.188056801E1,1.058724761E0,-1.594040513E0,3.771717072E0,4.229386828E0
1.189867995E1,6.604569554E-1,-1.208656073E0,1.272843361E0,1.875415451E0
1.191678889E1,3.558911085E-1,-9.815524220E-1,-1.869764328E-1,1.060690259E0
1.193488423E1,4.582554400E-1,-1.105206132E0,2.157144547E-1,1.215734909E0
1.195299202E1,5.253788829E-1,-1.344650030E0,8.439998627E-1,1.672256692E0
1.197109523E1,3.454192877E-1,-1.406510472E0,1.117053032E0,1.829041735E0
1.198919801E1,2.566277385E-1,-1.141282797E0,6.516590118E-1,1.339045812E0
1.200729677E1,1.733624786E-1,-8.723363876E-1,-1.584873199E-1,9.034066375E-1
1.202539766E1,9.078522027E-2,-7.237460613E-1,-4.959011078E-1,8.820250712E-1
1.204350783E1,3.330895901E-1,-6.261119843E-1,-5.399351120E-1,8.913443874E-1
1.206160927E1,6.773976684E-1,-5.311411619E-1,-6.434555054E-1,1.074715554E0
1.207971449E1,9.223455191E-1,-3.934283853E-1,-8.842601776E-1,1.336945479E0
1.209781660E1,8.838517666E-1,-2.517482042E-1,-8.672084808E-1,1.263574949E0
1.211591975E1,5.656003952E-1,-2.797026634E-1,-6.517972946E-1,9.071808531E-1
1.213402132E1,3.644168377E-1,-2.746644914E-1,-4.652347565E-1,6.516775223E-1
1.215212691E1,3.579843342E-1,-2.497773767E-1,-4.599246979E-1,6.340916725E-1
1.217022792E1,3.409947157E-1,-1.797251850E-1,-5.349149704E-1,6.593273571E-1
1.218833296E1,2.727595866E-1,-1.069926172E-1,-6.975145340E-1,7.565525344E-1
1.220643489E1,2.426789105E-1,-2.085730433E-2,-1.129867554E0,1.155823849E0
1.222452608E1,3.420968354E-1,1.067170501E-2,-1.195976257E0,1.243986872E0
1.224263869E1,4.017491937E-1,-3.702923656E-3,-7.136335373E-1,8.189560134E-1
1.226074641E1,4.074515402E-1,1.899063587E-3,-4.982872009E-1,6.436695571E-1
1.227884712E1,4.640826285E-1,1.120349467E-1,-5.527648926E-1,7.303927312E-1
1.229695003E1,3.605903685E-1,1.236065328E-1,-6.350288391E-1,7.406521554E-1
1.231505342E1,4.205201864E-1,1.991297901E-1,-6.712427139E-1,8.167353803E-1
1.233315626E1,6.650203466E-1,3.081367314E-1,-6.195945740E-1,9.597383720E-1
1.235125935E1,9.487041831E-1,4.177727103E-1,-5.643787384E-1,1.180295313E0
1.236935353E1,1.060229421E0,3.424182832E-1,-2.975082397E-1,1.153190296E0
1.238746077E1,1.054279804E0,1.890720129E-1,1.290712357E-1,1.078848236E0
1.240556856E1,8.776993752E-1,9.211570024E-3,6.108379364E-2,8.798706019E-1
1.242367170E1,4.672042429E-1,-3.646805882E-1,1.105022430E-2,5.927848206E-1
1.244177437E1,4.128395915E-1,-6.016390920E-1,4.252834320E-1,8.445543931E-1
1.245987782E1,6.213722229E-1,-6.975333691E-1,1.245521545E0,1.556913665E0
1.247798042E1,6.777202487E-1,-8.540308475E-1,1.657621384E0,1.984031773E0
1.249608394E1,4.841032624E-1,-1.106220007E0,1.632863998E0,2.030843054E0
1.251418587E1,8.006285429E-1,-1.073689938E0,1.339756966E0,1.894403566E0
1.253229127E1,1.273909569E0,-8.626917601E-1,7.249765396E-1,1.700786184E0
1.255039308E1,1.403295994E0,-6.837800741E-1,1.925363541E-1,1.572852531E0
1.256850154E1,1.232836604E0,-5.579206347E-1,1.521463394E-1,1.361730530E0
1.258659907E1,1.067333698E0,-5.142216086E-1,2.239589691E-1,1.205729118E0
1.260469142E1,9.164324999E-1,-5.454100966E-1,3.472929001E-1,1.121576149E0
1.262280549E1,6.833502054E-1,-5.335984230E-1,4.937925339E-1,9.977604155E-1
1.264090700E1,5.009478927E-1,-4.634897113E-1,2.037391663E-1,7.122367243E-1
1.265901814E1,5.457942486E-1,-2.871970534E-1,-3.066444397E-1,6.887701516E-1
1.267711421E1,6.593328714E-1,-1.334125102E-1,-5.016784668E-1,8.391662632E-1
1.269521736E1,6.868004799E-1,-7.799904048E-2,-4.013862610E-1,7.993057488E-1
1.271331514E1,6.166781783E-1,-4.160262644E-2,-3.940773010E-1,7.330209228E-1
1.273142244E1,5.831539631E-1,1.399140060E-2,-7.161493301E-1,9.236526225E-1
1.274952809E1,5.138201714E-1,1.293672621E-1,-1.187196732E0,1.300070435E0
1.276762965E1,5.337334871E-1,2.182660848E-1,-1.473338127E0,1.582162051E0
1.278572975E1,6.130962372E-1,3.063896894E-1,-1.424442291E0,1.580758514E0
1.280383864E1,5.723389387E-1,3.472895622E-1,-1.297469139E0,1.460002763E0
1.282193867E1,5.596810579E-1,2.989779413E-1,-1.129602432E0,1.295620450E0
1.284004207E1,5.351331830E-1,2.170091569E-1,-8.088254929E-1,9.938104324E-1
1.285813338E1,6.451377273E-1,1.770541966E-1,-5.889730453E-1,8.913137067E-1
1.287624574E1,6.375352144E-1,1.797861457E-1,-3.799819946E-1,7.636494772E-1
1.289434242E1,5.263884068E-1,9.816692770E-2,1.043653488E-1,5.455397570E-1
1.291243898E1,5.609033108E-1,5.720404536E-2,4.884786606E-1,7.459867483E-1
1.293055977E1,6.403554082E-1,9.072688967E-2,5.309734344E-1,8.367910166E-1
1.294866029E1,6.369257569E-1,9.019787610E-2,3.371582031E-1,7.262821288E-1
1.296675874E1,6.696276069E-1,6.501044333E-2,2.626314163E-1,7.222207076E-1
1.298486232E1,7.666851282E-1,1.890474558E-2,1.899871826E-1,7.901003764E-1
1.300296956E1,7.764798999E-1,-9.914009273E-2,5.249509811E-1,9.425090586E-1
1.302106929E1,5.191364288E-1,-2.781025469E-1,9.459276199E-1,1.114281257E0
1.303917848E1,2.770391703E-1,-4.572529197E-1,1.015938759E0,1.148025477E0
1.305726686E1,8.587634563E-2,-4.652356505E-1,6.776723862E-1,8.264737263E-1
1.307537953E1,-2.210913301E-1,-6.899365783E-1,3.025541306E-1,7.851323839E-1
1.309347407E1,-3.040608168E-1,-1.127833247E0,1.023692131E0,1.553192323E0
1.311158888E1,5.568689108E-2,-1.626470566E0,3.035596848E0,3.444322249E0
1.312969063E1,6.771313548E-1,-1.684038997E0,4.203743935E0,4.578859823E0
1.314779384E1,9.480236173E-1,-1.356400967E0,2.819345474E0,3.269140753E0
1.316589686E1,8.891153932E-1,-8.264264464E-1,4.359836578E-1,1.289801769E0
1.318399989E1,1.086490631E0,-3.107154667E-1,-1.246286392E0,1.682330456E0
1.320208858E1,1.244939208E0,-7.810116559E-2,-1.811655045E0,2.199560734E0
1.322020540E1,1.160344839E0,-7.747654617E-2,-1.428625107E0,1.842110870E0
1.323831007E1,8.416315317E-1,-1.843764782E-1,-9.108743668E-1,1.253806378E0
1.325641182E1,3.533393741E-1,-3.355055451E-1,-7.850074768E-1,9.239315033E-1
1.327451222E1,1.409678161E-1,-5.705238581E-1,-4.894962311E-1,7.648372102E-1
1.329262111E1,2.846859097E-1,-7.805011272E-1,2.616157532E-1,8.710171520E-1
1.331072096E1,5.206189752E-1,-8.222640157E-1,8.043632507E-1,1.262601468E0
1.332882454E1,7.247307897E-1,-6.683390141E-1,4.094467163E-1,1.067500992E0
1.334692268E1,8.425657749E-1,-4.166511893E-1,-5.291690826E-1,1.078672896E0
1.336503023E1,9.264397621E-1,-2.483375818E-1,-1.064862251E0,1.433141236E0
1.338313325E1,8.439264297E-1,-2.379008830E-1,-1.006258965E0,1.334678146E0
1.340122218E1,7.435992360E-1,-2.472842932E-1,-7.293701172E-1,1.070546642E0
1.341932765E1,6.499225497E-1,-1.593323052E-1,-5.190448761E-1,8.468728875E-1
1.343743049E1,4.619956017E-1,1.168191433E-3,-7.056703568E-1,8.434524012E-1
1.345553670E1,3.218271136E-1,1.895688772E-1,-1.036136627E0,1.101402815E0
1.347364717E1,3.141152263E-1,3.425309956E-1,-1.281912804E0,1.363560154E0
1.349175264E1,2.946174145E-1,3.799815178E-1,-1.320522308E0,1.405334317E0
1.350985475E1,2.892592549E-1,3.568411469E-1,-1.164430618E0,1.251760834E0
1.352795784E1,3.742479682E-1,3.041141033E-1,-9.491767883E-1,1.064651823E0
1.354605763E1,4.340437949E-1,2.648411393E-1,-7.228479385E-1,8.837669304E-1
1.356416353E1,2.755935490E-1,2.106766105E-1,-5.133991241E-1,6.196088275E-1
1.358226662E1,1.229925156E-1,1.296193302E-1,-3.507299423E-1,3.936239602E-1
1.360036848E1,1.686901450E-1,6.397196651E-2,-3.573217392E-1,4.002844024E-1
1.361847407E1,3.222474456E-1,1.700794697E-2,-3.167209625E-1,4.521557857E-1
1.363657570E1,4.562500119E-1,-2.806654572E-2,-1.249914169E-1,4.738930878E-1
1.365467921E1,5.828745961E-1,-1.220423281E-1,1.180458069E-1,6.071012578E-1
1.367278181E1,6.844058633E-1,-3.786088228E-1,4.188385010E-1,8.872326168E-1
1.369088447E1,5.160020590E-1,-6.763321757E-1,8.060750961E-1,1.171938734E0
1.370898756E1,3.222286105E-1,-6.739795804E-1,7.049646378E-1,1.027158650E0
1.372709065E1,1.870247126E-1,-6.510493755E-1,3.378362656E-1,7.569523597E-1
1.374519356E1,1.870116591E-1,-5.518047214E-1,1.843547821E-1,6.111043257E-1
1.376329384E1,4.730137885E-1,-5.502624512E-1,8.382606506E-1,1.108698213E0
1.378140272E1,6.588712335E-1,-8.363500834E-1,2.022009850E0,2.285195089E0
1.379948830E1,8.089001179E-1,-1.004119039E0,2.699345589E0,2.991494785E0
1.381760835E1,9.682891369E-1,-8.278659582E-1,1.613941193E0,2.056149817E0
1.383570875E1,9.279514551E-1,-6.040803790E-1,2.225751877E-1,1.129401045E0
1.385381038E1,8.872148991E-1,-5.667681098E-1,-2.920732498E-1,1.092558077E0
1.387191573E1,8.900223374E-1,-8.255233169E-1,1.892766953E-1,1.228598460E0
1.389000856E1,8.709167242E-1,-1.254140139E0,1.256985664E0,1.977719997E0
1.390811909E1,7.477667928E-1,-1.590014219E0,1.886016846E0,2.577665598E0
1.392622084E1,5.825884342E-1,-1.691293001E0,1.496246338E0,2.332087992E0
1.394432673E1,5.731413364E-1,-1.467965961E0,7.774343491E-1,1.757219172E0
1.396242524E1,6.443941593E-1,-1.165446162E0,1.358060837E-1,1.338638070E0
1.398053608E1,8.292552233E-1,-8.673014641E-1,-3.893814087E-1,1.261544267E0
1.399863679E1,8.840222955E-1,-7.259665728E-1,-7.557516098E-1,1.371015456E0
1.401673866E1,8.016815186E-1,-7.052323818E-1,-8.716440201E-1,1.378335687E0
1.403483766E1,6.431807876E-1,-7.175996900E-1,-9.057645798E-1,1.322512879E0
1.405293196E1,4.685345292E-1,-6.912521124E-1,-7.756385803E-1,1.139723342E0
1.407103730E1,4.739959538E-1,-5.635936856E-1,-5.424327850E-1,9.146274285E-1
1.408913899E1,4.057038724E-1,-4.007516801E-1,-4.909353256E-1,7.524726142E-1
1.410724397E1,2.426187992E-1,-2.613827884E-1,-6.947021484E-1,7.808943071E-1
1.412534895E1,3.306173086E-1,-8.082875609E-2,-8.563032150E-1,9.214642091E-1
1.414344874E1,4.418599308E-1,1.254740357E-2,-8.612699509E-1,9.680824159E-1
1.416155214E1,4.069207013E-1,3.475248814E-2,-7.810363770E-1,8.813682628E-1
1.417965462E1,5.238248110E-1,1.588202119E-1,-1.039956093E0,1.175212733E0
1.419775715E1,7.140414715E-1,3.656476140E-1,-1.147860527E0,1.400406080E0
1.421586073E1,7.352147102E-1,4.939002097E-1,-9.832582474E-1,1.323357423E0
1.423396901E1,7.030338049E-1,6.574856043E-1,-9.349117279E-1,1.341865787E0
1.425208162E1,6.062144041E-1,8.364363313E-1,-1.092996597E0,1.503915956E0
1.427017830E1,4.479568601E-1,1.008027196E0,-1.322935104E0,1.722481195E0
1.428828432E1,4.813412130E-1,1.113669038E0,-1.367174149E0,1.827871232E0
1.430637892E1,6.437749267E-1,1.063463449E0,-9.614706039E-1,1.571568130E0
1.432449251E1,8.767987490E-1,1.054072857E0,-5.326700211E-1,1.470912297E0
1.434259248E1,1.124298692E0,1.017830849E0,-4.938421249E-1,1.594963081E0
1.436069533E1,1.403957486E0,9.400922060E-1,-5.307779312E-1,1.771043532E0
1.437878688E1,1.513993502E0,8.775430918E-1,5.221939087E-2,1.750709875E0
1.439690156E1,1.431071401E0,6.319488883E-1,7.759733200E-1,1.746270124E0
1.441500465E1,1.106315970E0,3.527293801E-1,1.425287247E0,1.838422361E0
1.443310499E1,7.579152584E-1,1.715523601E-1,1.380888939E0,1.584525169E0
1.445121260E1,4.495218396E-1,1.478274763E-1,8.451204300E-1,9.685821536E-1
1.446931300E1,3.751552105E-1,3.639709949E-1,2.994594574E-1,6.024054148E-1
1.448741627E1,8.477789164E-2,3.066810071E-1,1.835775375E-1,3.673434950E-1
1.450551906E1,-2.758030891E-1,2.854341269E-2,3.041725159E-1,4.115859446E-1
1.452362214E1,-2.767279148E-1,-4.142054021E-1,1.221886635E0,1.319526962E0
1.454172475E1,3.681433201E-2,-9.697116017E-1,1.984600067E0,2.209147644E0
1.455982790E1,3.814173937E-1,-1.356920123E0,2.359491348E0,2.748437897E0
1.457792726E1,6.926503181E-1,-1.488925934E0,2.383766174E0,2.894651287E0
1.459603096E1,1.078672767E0,-1.522419691E0,2.164885521E0,2.857975852E0
1.461413966E1,1.607332706E0,-1.421195745E0,2.121076584E0,3.016998782E0
1.463224000E1,1.701881647E0,-1.299920082E0,2.145494461E0,3.031392393E0
1.465034450E1,1.364004374E0,-1.090780258E0,1.451814651E0,2.271139645E0
1.466844405E1,1.015072107E0,-8.662263751E-1,3.945474625E-1,1.391541310E0
1.468654860E1,6.112603545E-1,-6.283437610E-1,-3.207483292E-1,9.334530484E-1
1.470465187E1,2.639475465E-1,-5.452279449E-1,-6.945495605E-1,9.215969353E-1
1.472274959E1,3.241168261E-1,-5.098016262E-1,-6.100292206E-1,8.585365834E-1
1.474084566E1,6.153275371E-1,-5.191792250E-1,-9.047222137E-2,8.101606435E-1
1.475895070E1,9.662988782E-1,-4.842129350E-1,-1.139240265E-1,1.086818463E0
1.477706337E1,9.362605810E-1,-3.785724640E-1,-6.283740997E-1,1.189434738E0
1.479516676E1,6.585947871E-1,-2.529437840E-1,-1.204320908E0,1.395749440E0
1.481326814E1,4.052522182E-1,-1.159845293E-1,-1.643979073E0,1.697159086E0
1.483137349E1,4.043946862E-1,9.512715042E-3,-1.771916389E0,1.817501924E0
1.484947529E1,4.724390209E-1,8.621781319E-2,-1.507511139E0,1.582157380E0
1.486757838E1,3.205397129E-1,8.599074930E-2,-1.114127159E0,1.162505674E0
1.488567677E1,1.020918787E-1,1.296065599E-1,-1.013748169E0,1.027086151E0
1.496035597E1,5.944311619E-2,1.894190013E-1,-4.904537201E-1,5.291104740E-1
1.497845747E1,-2.696400881E-2,2.072089314E-1,-4.663114548E-1,5.109882307E-1
1.499656081E1,-2.493606806E-1,2.387938797E-1,-6.147308350E-1,7.050512502E-1
1.501466353E1,-2.980939150E-1,2.527377903E-1,-5.955123901E-1,7.123000629E-1
1.503276637E1,-1.748390794E-1,2.640373111E-1,-3.317441940E-1,4.586268806E-1
1.505086806E1,-1.673103571E-1,2.308299541E-1,-8.325004578E-2,2.969946017E-1
1.506897377E1,-1.363970637E-1,2.630771399E-1,-1.213197708E-1,3.202065385E-1
1.508707515E1,7.195115089E-3,3.336427212E-1,-1.639251709E-1,3.718073382E-1
1.510517848E1,8.310815692E-2,3.715437651E-1,-2.692365646E-1,4.663046889E-1
1.512328096E1,1.088330150E-1,4.813987613E-1,-3.834371567E-1,6.249907564E-1
1.514138460E1,2.680572867E-1,5.346621275E-1,-3.346834183E-1,6.853694551E-1
1.515948695E1,3.664838076E-1,4.792364836E-1,-2.702903748E-2,6.039110508E-1
1.517758376E1,3.553116024E-1,3.070771694E-1,3.426952362E-1,5.813628365E-1
1.519569307E1,2.012971640E-1,1.300574839E-1,4.679346085E-1,5.257359557E-1
1.521379548E1,-1.418797374E-1,-2.023458183E-1,4.190731049E-1,4.865140874E-1
1.523189888E1,-1.677435637E-2,-4.723015428E-1,6.717071533E-1,8.213042227E-1
1.524999965E1,5.973363519E-1,-6.068223715E-1,1.633647919E0,1.842240383E0
1.526810194E1,1.089210391E0,-7.690176368E-1,2.567263603E0,2.892854958E0
1.528620772E1,1.199577570E0,-9.951695204E-1,2.639942169E0,3.065720695E0
1.530431062E1,1.216694593E0,-1.007866144E0,1.799427986E0,2.394594115E0
1.532241347E1,1.284819126E0,-8.612346053E-1,8.023729324E-1,1.742494636E0
1.534051582E1,1.163619757E0,-7.427139282E-1,-3.915786743E-2,1.381002627E0
1.535861940E1,9.339357615E-1,-7.514424324E-1,-4.271717072E-1,1.272547603E0
1.537671950E1,9.898782969E-1,-7.388682961E-1,-8.283710480E-2,1.238001368E0
1.539482033E1,1.156213999E0,-6.216745973E-1,3.678493500E-1,1.363313339E0
1.541292885E1,1.141065359E0,-4.541664720E-1,8.629894257E-2,1.231155898E0
1.543103151E1,1.006952286E0,-3.274536431E-1,-5.112524033E-1,1.175822186E0
1.544913405E1,8.946835995E-1,-3.085452616E-1,-8.264389038E-1,1.256447446E0
1.546723707E1,9.059441090E-1,-3.763541579E-1,-6.878252029E-1,1.198115475E0
1.548533955E1,9.323913455E-1,-4.700080156E-1,-3.201303482E-1,1.092128470E0
1.550344289E1,9.735093117E-1,-4.833709598E-1,-1.844215393E-2,1.087063925E0
1.552153395E1,1.045142055E0,-4.432063103E-1,-1.614494324E-1,1.146655862E0
1.553964687E1,1.059517860E0,-2.833053470E-1,-5.680065155E-1,1.235099760E0
1.555774263E1,9.567178488E-1,-7.523007691E-2,-1.166852951E0,1.510799264E0
1.557585481E1,8.440078497E-1,1.047753692E-1,-1.450401306E0,1.681365837E0
1.559395662E1,7.585397959E-1,2.280555069E-1,-1.451926231E0,1.653929175E0
1.561206093E1,7.955973148E-1,2.547865510E-1,-1.276596069E0,1.525643732E0
1.563016328E1,9.934408069E-1,2.716701925E-1,-7.705421448E-1,1.286259899E0
1.564826637E1,1.114366770E0,3.083445430E-1,-4.027214050E-1,1.224366851E0
1.566635817E1,1.108050346E0,3.301785886E-1,-3.797111511E-1,1.216952764E0
1.568447194E1,1.059733391E0,2.815569937E-1,-2.658538818E-1,1.128267471E0
1.570257460E1,9.658339024E-1,2.056560516E-1,2.846460342E-1,1.027693001E0
1.572066634E1,8.065770864E-1,7.649387419E-2,7.296676636E-1,1.090336099E0
1.573877956E1,6.973293424E-1,1.279422641E-2,9.706058502E-1,1.195201916E0
1.575688496E1,6.529425979E-1,1.661713421E-2,8.394565582E-1,1.063624689E0
1.577498140E1,4.449318945E-1,5.246606469E-2,4.790401459E-1,6.558936957E-1
1.579308675E1,2.663351595E-1,1.743265986E-1,1.859922409E-1,3.686696270E-1
1.581119520E1,3.140890896E-1,3.397392929E-1,-1.592998505E-1,4.893374967E-1
1.582929518E1,3.566016257E-1,3.774597347E-1,-2.946176529E-1,5.970260732E-1
1.584739332E1,1.262641549E-1,1.962202489E-1,-2.992143631E-1,3.794393996E-1
1.586550124E1,-1.597433686E-1,2.465134859E-2,-8.467674255E-2,1.824713225E-1
1.588360280E1,-1.974070072E-1,-2.283563316E-1,4.017419815E-1,5.025064779E-1
1.590170698E1,-1.638014317E-1,-6.228255630E-1,1.161540031E0,1.328125685E0
1.591981068E1,-7.056897879E-2,-9.457186460E-1,2.044997215E0,2.254191063E0
1.593791408E1,2.201364040E-1,-9.945127964E-1,2.276562691E0,2.494043589E0
1.595601460E1,5.588437319E-1,-7.671197653E-1,1.717556000E0,1.962339844E0
1.597411726E1,9.978486300E-1,-4.160590172E-1,6.288614273E-1,1.250709274E0
1.599222255E1,1.127794623E0,-2.295690775E-1,-7.598304749E-2,1.153427977E0
1.601031178E1,1.065695882E0,-1.614207476E-1,-3.636655807E-1,1.137548691E0
1.602842848E1,9.252804518E-1,-1.973503381E-1,-5.018091202E-1,1.070935789E0
1.604653023E1,6.979756355E-1,-3.578318954E-1,-2.048892975E-1,8.106745817E-1
1.606463283E1,5.563061237E-1,-5.294946432E-1,5.845785141E-1,9.651803560E-1
1.608272700E1,7.124594450E-1,-5.469462276E-1,8.380002975E-1,1.228410817E0
1.610083864E1,1.064435363E0,-3.221435845E-1,7.289981842E-2,1.114501464E0
1.611893672E1,1.234605193E0,-1.116253138E-1,-7.833242416E-1,1.466392533E0
1.613704445E1,1.201083541E0,-1.297344267E-2,-1.157382011E0,1.668023712E0
1.615514790E1,1.285215259E0,-3.267228603E-4,-1.181911469E0,1.746050711E0
1.617325050E1,1.403596044E0,-3.853905201E-2,-1.005370140E0,1.726944189E0
1.619135371E1,1.213711977E0,-1.099260971E-1,-8.106698990E-1,1.463682409E0
1.620945302E1,8.956449032E-1,-1.212097555E-1,-9.079198837E-1,1.281089424E0
1.622755299E1,6.907525063E-1,-4.145933688E-2,-1.210110664E0,1.393996313E0
1.624566414E1,5.102666616E-1,5.929686129E-2,-1.441996574E0,1.530765268E0
1.626376509E1,4.339144230E-1,1.443628222E-1,-1.252096176E0,1.332991817E0
1.628186787E1,4.339632392E-1,1.787165254E-1,-9.231424332E-1,1.035594342E0
1.629997151E1,3.202483654E-1,1.857402474E-1,-7.237138748E-1,8.129084989E-1
1.631807393E1,2.362278253E-1,1.860069335E-1,-6.433877945E-1,7.101760478E-1
1.633617671E1,3.156937957E-1,2.013121843E-1,-5.101776123E-1,6.328272784E-1
1.635426637E1,3.163190484E-1,2.593280971E-1,-1.910381317E-1,4.514469737E-1
1.637238405E1,3.315827250E-1,3.189552426E-1,1.291685104E-1,4.778745175E-1
1.639048561E1,3.748274446E-1,3.502203822E-1,4.073944092E-1,6.550726173E-1
1.640859370E1,3.162720799E-1,3.058474064E-1,2.595701218E-1,5.108300233E-1
1.642669081E1,3.227598071E-1,2.292368114E-1,3.595638275E-2,3.975126039E-1
1.644479085E1,2.476489395E-1,6.329360604E-2,1.795740128E-1,3.123826241E-1
1.646289693E1,3.584027290E-2,-1.872746646E-1,7.189092636E-1,7.437653222E-1
1.648099879E1,2.405029982E-1,-2.982996106E-1,1.087574959E0,1.153101748E0
1.649910371E1,5.469611883E-1,-3.805725574E-1,1.231820107E0,1.400493766E0
1.651720601E1,1.229057312E-1,-8.164615631E-1,1.296303749E0,1.536918577E0
1.653530855E1,-4.166582227E-2,-1.050055146E0,1.884885788E0,2.158042234E0
1.655340822E1,5.201085210E-1,-9.141210318E-1,1.739750862E0,2.032944465E0
1.657151259E1,1.106449723E0,-5.855928063E-1,1.181591034E0,1.721425949E0
1.658961952E1,1.077907443E0,-2.493767291E-1,3.723030090E-1,1.167340027E0
1.660772047E1,8.710904121E-1,-5.525912717E-2,-4.749555588E-1,9.936975697E-1
1.662582313E1,8.698862791E-1,-1.376643926E-1,-6.319961548E-1,1.084007732E0
1.664392598E1,9.201745391E-1,-3.693045676E-1,-7.564067841E-2,9.943985912E-1
1.666202931E1,1.013777018E0,-5.949249864E-1,5.086441040E-1,1.280780389E0
1.668013209E1,9.951987267E-1,-6.431165934E-1,6.141586304E-1,1.334619901E0
1.669822774E1,8.862556815E-1,-4.995907247E-1,2.075252533E-1,1.038319198E0
1.671633742E1,8.153471947E-1,-3.630181551E-1,-3.894023895E-1,9.737594414E-1
1.673443812E1,7.439280748E-1,-3.297453523E-1,-5.374155045E-1,9.751801897E-1
1.675254652E1,7.954626083E-1,-2.484668344E-1,-6.186494827E-1,1.037893883E0
1.677064638E1,8.926460147E-1,-5.861265957E-2,-8.726768494E-1,1.249726864E0
1.678874904E1,8.644557595E-1,2.113041878E-1,-1.323966026E0,1.595248965E0
1.680684773E1,7.349236012E-1,5.041476488E-1,-1.842059135E0,2.046328275E0
1.682495521E1,5.684977770E-1,6.613470316E-1,-1.967797279E0,2.152393029E0
1.684305812E1,5.008171797E-1,7.017197013E-1,-1.642813683E0,1.855280351E0
1.686115962E1,5.728866458E-1,6.511044502E-1,-1.331519127E0,1.589049810E0
1.687926533E1,6.151333451E-1,5.706137419E-1,-9.283638000E-1,1.251338651E0
1.689735499E1,5.621596575E-1,4.874854088E-1,-2.872056961E-1,7.975917603E-1
1.691546962E1,4.707184136E-1,4.586709142E-1,2.254438400E-1,6.948235441E-1
1.693357356E1,4.127159417E-1,4.965929091E-1,4.937791824E-1,8.128695141E-1
1.695166499E1,4.101184607E-1,4.852758050E-1,5.809793472E-1,8.609452715E-1
1.696976747E1,3.991144598E-1,4.449887872E-1,8.059797287E-1,1.003449399E0
1.698786989E1,3.038522005E-1,4.490388632E-1,5.379457474E-1,7.637720128E-1
1.700598708E1,-3.768414855E-1,4.227413535E-1,1.132421494E-1,5.775322862E-1
1.702408406E1,-2.910333157E0,7.457245588E-1,2.129991531E0,3.682798952E0
1.704002992E1,6.460049152E-1,9.415153265E-1,1.654624939E-2,1.141948878E0
1.705802593E1,7.093709111E-1,3.643387556E-1,1.609420776E-2,7.976270068E-1
1.707613405E1,8.496037722E-1,-4.081513882E-1,3.000431061E-1,9.891612562E-1
1.709423671E1,1.102043390E0,-9.655442834E-1,9.371185303E-1,1.739243093E0
1.711233992E1,9.574345350E-1,-1.493174195E0,1.606278419E0,2.392985672E0
1.713042476E1,5.587322712E-1,-1.833386540E0,2.570307732E0,3.206239198E0
1.714854579E1,1.017605662E-1,-1.485840559E0,3.007701874E0,3.356240150E0
1.716664845E1,-4.123942554E-1,-6.409485340E-1,2.210657120E0,2.338351758E0
1.718474788E1,-3.908753395E-1,8.753198385E-2,1.190423965E0,1.256007403E0
1.720285420E1,-8.502781391E-3,2.200029790E-1,3.461799622E-1,4.102611050E-1
1.722095698E1,2.760322988E-1,4.875423014E-2,-1.783885956E-1,3.322548660E-1
1.723905983E1,2.306721359E-1,-2.497054338E-1,-8.883848190E-1,9.512045125E-1
1.725715816E1,-2.808502316E-2,-4.609652162E-1,-1.375193596E0,1.450667131E0
1.727525538E1,-3.759867549E-1,-6.606739759E-1,-1.113245964E0,1.348025489E0
1.729336909E1,-4.424432516E-1,-7.633644938E-1,-2.199211121E-1,9.093111002E-1
1.731146998E1,-2.831361592E-1,-7.346682549E-1,3.213777542E-1,8.504041335E-1
1.732956202E1,3.717881441E-2,-5.023646951E-1,1.411190033E-1,5.231320332E-1
1.734766713E1,1.773803681E-1,-2.128088772E-1,-4.131288528E-1,4.974202069E-1
1.736578322E1,2.420635670E-1,9.788528085E-3,-8.925218582E-1,9.248166592E-1
1.738388332E1,3.406676054E-1,1.647779047E-1,-1.354918480E0,1.406772996E0
1.740198628E1,3.184209168E-1,2.021963000E-1,-1.617350578E0,1.660752274E0
1.742008693E1,1.832051426E-1,2.030654550E-1,-1.615106583E0,1.638099196E0
1.743819179E1,1.160212159E-1,1.995978951E-1,-1.488276482E0,1.506076734E0
1.745629494E1,-1.134388596E-1,1.773929596E-1,-1.256322861E0,1.273846053E0
1.747439473E1,-1.871486306E-1,1.839271188E-1,-9.930849075E-1,1.027166699E0
1.749250361E1,-1.484681219E-1,1.212438643E-1,-6.546583176E-1,6.821439515E-1
1.751060359E1,-2.210754454E-1,1.401221752E-1,-7.266101837E-1,7.723153084E-1
1.752870644E1,-3.301914930E-1,2.463465333E-1,-9.401569366E-1,1.026454140E0
1.754680934E1,-3.622231483E-1,3.458888531E-1,-7.417459488E-1,8.950037768E-1
1.756491212E1,-3.077154160E-1,3.522814512E-1,-1.953544617E-1,5.069066618E-1
1.758301515E1,-2.282171249E-1,2.856094241E-1,2.467823029E-1,4.410865043E-1
1.760110664E1,1.911879629E-1,2.918255627E-1,5.216693878E-2,3.527554191E-1
1.761922060E1,7.467535138E-1,3.452496231E-1,-3.760013580E-1,9.045524495E-1
1.763731569E1,8.933146596E-1,2.818462253E-1,-5.633125305E-1,1.093055069E0
1.765542994E1,5.199390054E-1,-1.013325751E-1,-3.088073730E-1,6.131613603E-1
1.767352949E1,-6.202053279E-2,-2.819098830E-1,7.401027679E-1,7.944002994E-1
1.769163118E1,-2.580283880E-1,-7.160467505E-1,8.021707535E-1,1.105793614E0
1.770973372E1,-2.249745876E-1,-8.876515627E-1,8.100996017E-1,1.222620230E0
1.772783082E1,-6.693687290E-2,-8.262602687E-1,1.477052689E0,1.693774253E0
1.774592988E1,3.615621924E-1,-7.493221760E-1,2.277395248E0,2.424611321E0
1.776403920E1,8.121353984E-1,-6.809756160E-1,2.481452942E0,2.698314362E0
1.778213838E1,9.392220974E-1,-5.410574675E-1,1.622262955E0,1.951055721E0
1.780023988E1,1.019344926E0,-3.512838185E-1,2.188196182E-1,1.100157454E0
1.781834285E1,1.095478535E0,-1.485926956E-1,-7.627887726E-1,1.343130567E0
1.783644490E1,1.147848248E0,-8.850345016E-2,-8.387985229E-1,1.424419680E0
1.785454835E1,1.082412481E0,-2.907077372E-1,-9.802436829E-2,1.125049574E0
1.787265266E1,1.014176965E0,-5.392625332E-1,5.155000687E-1,1.259007274E0
1.789075386E1,9.069145322E-1,-6.815795898E-1,5.438718796E-1,1.258110221E0
1.790885530E1,8.623729348E-1,-6.056360602E-1,4.053382874E-1,1.129062108E0
1.792697279E1,4.484490156E-1,-6.378437877E-1,4.221458435E-1,8.866557000E-1
1.794507301E1,-1.616517082E-2,-6.114139557E-1,4.420490265E-1,7.546493754E-1
1.796318141E1,1.478924751E-1,-4.973858893E-1,7.105445862E-2,5.237495997E-1
1.798127705E1,4.582580328E-1,-3.967760205E-1,-4.079227448E-1,7.306384884E-1
1.799938301E1,4.893687963E-1,-2.705551386E-1,-5.392723083E-1,7.768503874E-1
1.801747969E1,4.091680348E-1,-1.424254030E-1,-5.701217651E-1,7.160602651E-1
1.803558735E1,3.588428497E-1,-5.086296797E-2,-8.112096786E-1,8.884910664E-1
1.805369026E1,3.818551600E-1,4.990470409E-2,-1.038943291E0,1.108019406E0
1.807179317E1,4.410050809E-1,1.301777959E-1,-1.109448433E0,1.200961101E0
1.808989644E1,5.005328655E-1,2.699231505E-1,-1.102220535E0,1.240274875E0
1.810798536E1,4.659609199E-1,3.524435163E-1,-1.318245888E0,1.441911312E0
1.812610200E1,4.241225123E-1,3.955372572E-1,-1.479547501E0,1.589147707E0
1.814420369E1,6.740117073E-1,4.184452593E-1,-1.262552261E0,1.491115834E0
1.816230897E1,9.202618599E-1,3.884201348E-1,-7.967472076E-1,1.277716011E0
1.818041060E1,1.053791642E0,3.740718961E-1,-3.538045883E-1,1.172853058E0
1.819851344E1,1.018907905E0,4.267173707E-1,-9.937572479E-2,1.109115218E0
1.821661159E1,8.709895611E-1,3.906583190E-1,1.918725967E-1,9.736795320E-1
1.823471577E1,7.183660269E-1,2.964920402E-1,4.390220642E-1,8.925792129E-1
1.825282228E1,6.763150692E-1,2.055231333E-1,4.700803757E-1,8.488918604E-1
1.827092378E1,8.145187497E-1,1.719341576E-1,4.415521622E-1,9.423218453E-1
1.828902900E1,9.316071272E-1,1.888424158E-1,3.939905167E-1,1.028971246E0
1.830713063E1,9.448599815E-1,1.369499564E-1,2.937974930E-1,9.989157333E-1
1.832523378E1,8.646433353E-1,-1.443782449E-2,4.450817108E-1,9.725812446E-1
1.834333681E1,6.895990372E-1,-2.857613862E-1,5.748577118E-1,9.421612339E-1
1.836143934E1,5.758374929E-1,-5.189172029E-1,7.660732269E-1,1.089831212E0
1.837954243E1,4.884743392E-1,-7.209682465E-1,1.154736519E0,1.446312145E0
1.839762959E1,3.075459599E-1,-9.803606272E-1,1.344542503E0,1.692183802E0
1.841574812E1,3.052197099E-1,-1.060717702E0,1.707644463E0,2.033305369E0
1.843385097E1,5.146459937E-1,-9.851428866E-1,1.872196198E0,2.177265626E0
1.845194240E1,7.624489665E-1,-7.833812237E-1,1.467990875E0,1.830303739E0
1.847005421E1,8.595092297E-1,-5.272977948E-1,6.981039047E-1,1.226437174E0
1.848816255E1,8.804837465E-1,-3.143275976E-1,-1.156520844E-2,9.349797969E-1
1.850626265E1,9.335860014E-1,-1.936703473E-1,-2.287511826E-1,9.805193160E-1
1.852436549E1,8.437604904E-1,-1.798751503E-1,-3.558282852E-1,9.332205546E-1
1.854246852E1,6.414512396E-1,-1.756241769E-1,-5.752258301E-1,8.793112645E-1
1.856057124E1,4.565553665E-1,-1.713471562E-1,-5.208492279E-1,7.135030265E-1
1.857867427E1,3.060479462E-1,-2.174736708E-1,-4.700193405E-1,6.015632330E-1
1.859676558E1,1.283476353E-1,-3.660436869E-1,-2.882652283E-1,4.832783235E-1
1.861487996E1,1.091483235E-1,-5.715667009E-1,8.174037933E-2,5.876081515E-1
1.863298280E1,3.672465980E-1,-7.388471365E-1,4.984378815E-1,9.639530469E-1
1.865107765E1,7.305799723E-1,-8.321448565E-1,7.611894608E-1,1.343734182E0
1.866918989E1,9.900338054E-1,-7.954481840E-1,4.637298584E-1,1.352017060E0
1.868729152E1,9.811638594E-1,-6.743813753E-1,-2.874469757E-1,1.224785092E0
1.870539448E1,9.103553891E-1,-5.323323011E-1,-8.957347870E-1,1.383642086E0
1.872349635E1,8.800297976E-1,-4.706513286E-1,-1.067517281E0,1.461354940E0
1.874160121E1,8.697082996E-1,-5.057811737E-1,-8.156547546E-1,1.295183308E0
1.875970314E1,7.672600746E-1,-5.831839442E-1,-3.839206696E-1,1.037394147E0
1.877780617E1,6.340155005E-1,-5.980291963E-1,-3.937644958E-1,9.563812277E-1
1.879589729E1,4.664714336E-1,-5.460605621E-1,-7.986831665E-1,1.074091493E0
1.881401021E1,3.974499702E-1,-5.046335459E-1,-1.041193962E0,1.223399510E0
1.883211616E1,5.174246430E-1,-4.218760431E-1,-9.727754593E-1,1.179830391E0
1.885021681E1,7.020362616E-1,-3.895953298E-1,-6.997289658E-1,1.065016460E0
1.886832142E1,7.412432432E-1,-4.112540781E-1,-4.306402206E-1,9.508009582E-1
1.888642366E1,6.865086555E-1,-3.979465961E-1,-6.056928635E-1,9.982582193E-1
1.890452602E1,6.693552732E-1,-2.948532104E-1,-8.495244980E-1,1.121011494E0
1.892262935E1,6.650041342E-1,-2.098599672E-1,-7.783565521E-1,1.045040969E0
1.894072834E1,7.005998492E-1,-1.429330111E-1,-4.685945511E-1,8.548981505E-1
1.895883461E1,7.781450748E-1,-2.125242054E-1,-1.585178375E-1,8.220731112E-1
1.897693306E1,8.614513874E-1,-4.253256023E-1,3.903779984E-1,1.037012701E0
1.899504542E1,9.829652905E-1,-7.142153978E-1,7.492389679E-1,1.427474493E0
1.901314015E1,1.252004385E0,-7.868860960E-1,8.150205612E-1,1.688479560E0
1.903123872E1,1.227231979E0,-9.078233838E-1,8.743019104E-1,1.759160441E0
1.904934981E1,9.974057674E-1,-1.137626529E0,1.287231445E0,1.986448383E0
1.906745241E1,1.023849010E0,-1.433512688E0,2.091516495E0,2.734532258E0
1.908555513E1,1.330083013E0,-1.663675070E0,2.601277351E0,3.362079627E0
1.910365675E1,1.596164942E0,-1.638950706E0,2.097968102E0,3.104089575E0
1.912176216E1,1.688192129E0,-1.230994463E0,8.001680374E-1,2.237321819E0
1.913986378E1,1.811715126E0,-7.416484356E-1,-2.521543503E-1,1.973812533E0
1.915795375E1,1.807247639E0,-3.732199073E-1,-7.576513290E-1,1.994861565E0
1.917606691E1,1.626903534E0,-4.094661474E-1,-7.182979584E-1,1.824946463E0
1.919417256E1,1.538314581E0,-6.034169197E-1,-4.085493088E-1,1.702185732E0
1.921227540E1,1.463571787E0,-7.885618210E-1,-1.146736145E-1,1.666439966E0
1.923037721E1,1.453090668E0,-8.397829533E-1,1.379146576E-1,1.683962099E0
1.924848268E1,1.653802991E0,-7.425783277E-1,4.197883606E-2,1.813353007E0
1.926658442E1,1.818715692E0,-6.384409070E-1,-1.451034546E-1,1.932974022E0
1.928467036E1,1.966812134E0,-6.233896613E-1,-2.894668579E-1,2.083448032E0
1.930277540E1,1.986831427E0,-7.542942762E-1,-2.342348099E-1,2.138065696E0
1.932088222E1,1.945183396E0,-8.058879375E-1,-2.657556534E-1,2.122220507E0
1.933898592E1,1.916713715E0,-7.932603359E-1,-3.955392838E-1,2.111753951E0
1.935709852E1,1.850375652E0,-7.601873279E-1,-4.280328751E-1,2.045724070E0
1.937519002E1,1.620299339E0,-7.595573068E-1,-4.612159729E-1,1.847976576E0
1.939330592E1,1.418874979E0,-7.524697781E-1,-4.446630478E-1,1.666475982E0
1.941140584E1,1.400076270E0,-8.421009183E-1,-2.368488312E-1,1.650892149E0
1.942951008E1,1.589233518E0,-9.008868933E-1,3.549957275E-2,1.827161894E0
1.944761323E1,1.689533234E0,-9.698618650E-1,1.666727066E-1,1.955232563E0
1.946571577E1,1.719101429E0,-9.464204311E-1,-3.168296814E-1,1.987813473E0
1.948380836E1,1.708358407E0,-9.100183249E-1,-1.155291557E0,2.254178427E0
1.950192122E1,1.579675436E0,-9.129188061E-1,-1.577987671E0,2.412227253E0
1.952002455E1,1.716833353E0,-8.096386790E-1,-1.252406120E0,2.274104800E0
1.953812739E1,2.285136223E0,-4.648433328E-1,-1.219783783E0,2.631691349E0
1.955622554E1,2.157274961E0,-6.825664639E-1,-1.163464546E0,2.544284180E0
1.957433320E1,8.134031296E-1,-1.292560816E0,7.998704910E-1,1.723986925E0
1.959243605E1,3.693326116E-1,-1.956567883E0,2.896100044E0,3.514535521E0
1.961053785E1,1.126907349E0,-2.197447777E0,3.830395699E0,4.557480457E0
1.962863673E1,1.725470304E0,-2.041951895E0,3.526911736E0,4.425598457E0
1.964674476E1,1.580389977E0,-1.778634071E0,2.398864746E0,3.378716281E0
1.966484303E1,1.127229452E0,-1.405738711E0,8.645172119E-1,1.998533856E0
1.968294923E1,9.695390463E-1,-1.103365898E0,-3.915643692E-1,1.520113457E0
1.970105433E1,1.137646914E0,-8.539561033E-1,-1.387771606E0,1.987307615E0
1.971915626E1,1.255821228E0,-6.556746960E-1,-1.649864197E0,2.174637471E0
1.973725923E1,1.224581957E0,-6.006939411E-1,-9.488344193E-1,1.661541734E0
1.975536201E1,9.588212967E-1,-7.449852228E-1,4.238414764E-2,1.214964064E0
1.977345320E1,4.206250310E-1,-1.163825750E0,7.480230331E-1,1.446013227E0
1.979156758E1,6.244623661E-2,-1.391465783E0,4.853219986E-1,1.474996271E0
1.980967055E1,-4.816997051E-2,-1.184723973E0,-6.083478928E-1,1.332658395E0
1.982776155E1,1.712588668E-1,-7.460536957E-1,-1.496806145E0,1.681176478E0
1.984587660E1,3.774114549E-1,-4.562173486E-1,-9.963989258E-1,1.159044647E0
1.986397938E1,4.869655073E-1,-4.131903946E-1,-1.790094376E-1,6.632541641E-1
1.988208198E1,6.661255360E-1,-4.806738198E-1,1.131477356E-1,8.292001934E-1
1.990018403E1,7.144118547E-1,-6.104370952E-1,1.546268463E-1,9.523272583E-1
1.991828572E1,6.057063341E-1,-7.470268607E-1,2.688961029E-1,9.986162466E-1
1.993638899E1,4.663016200E-1,-7.762563825E-1,4.749002457E-1,1.022517196E0
1.995448366E1,3.948524594E-1,-6.867234111E-1,4.223489761E-1,8.977060575E-1
1.997258998E1,4.495946765E-1,-4.941124916E-1,3.551216125E-1,7.565671730E-1
1.999069630E1,5.913404226E-1,-2.984946072E-1,2.931709290E-1,7.243836826E-1
2.000880049E1,6.414011717E-1,-1.637593806E-1,3.520669937E-1,7.497758104E-1
2.002690498E1,6.676217318E-1,-8.229711652E-2,4.211673737E-1,7.936457325E-1
2.004500832E1,7.519458532E-1,6.619989872E-4,3.112516403E-1,8.138185228E-1
2.006310963E1,8.532218933E-1,4.081809521E-2,2.172746658E-1,8.813977516E-1
2.008121480E1,9.629960656E-1,3.765359521E-2,2.199935913E-1,9.885223295E-1
2.009931654E1,1.005607843E0,-4.009148479E-2,4.183530807E-1,1.089896216E0
2.011742586E1,1.051357865E0,-1.383681595E-1,6.217584610E-1,1.229261035E0
2.013551753E1,1.069633842E0,-1.272368729E-1,5.998363495E-1,1.232927177E0
2.015362520E1,9.491518736E-1,-1.211753786E-1,5.131969452E-1,1.085791811E0
2.017171626E1,6.155606508E-1,-3.206726611E-1,7.062854767E-1,9.902449419E-1
2.018982966E1,4.451987147E-1,-6.647763848E-1,1.333357811E0,1.554983148E0
2.020793526E1,5.808641315E-1,-9.882417917E-1,1.914090157E0,2.231090788E0
2.022603657E1,8.281648159E-1,-1.042716265E0,1.761447906E0,2.208124294E0
2.024413984E1,8.157826662E-1,-8.533587456E-1,8.834934235E-1,1.474545061E0
2.026224238E1,6.969611645E-1,-5.887291431E-1,-7.687473297E-2,9.155689998E-1
2.028034633E1,3.647176921E-1,-4.609028697E-1,-6.334314346E-1,8.641098499E-1
2.029844716E1,1.886813343E-1,-5.801758766E-1,-7.162199020E-1,9.408377340E-1
2.031655073E1,9.505245835E-2,-7.565039396E-1,-6.275482178E-1,9.874968082E-1
2.033465138E1,2.776321173E-1,-8.912146688E-1,-4.671297073E-1,1.043816718E0
2.035275892E1,4.620980620E-1,-8.970146179E-1,-4.255199432E-2,1.009940848E0
2.037085957E1,3.582352996E-1,-8.699882030E-1,2.716655731E-1,9.792926973E-1
2.038896290E1,2.576138973E-1,-7.912183404E-1,1.537847519E-1,8.461921367E-1
2.040706544E1,3.238123655E-1,-7.939265370E-1,-1.777601242E-1,8.756554437E-1
2.042516530E1,5.408174992E-1,-7.968948483E-1,-6.367902756E-1,1.154567807E0
2.044325966E1,7.056379318E-1,-7.276605368E-1,-9.491033554E-1,1.388600708E0
2.046136208E1,6.297951937E-1,-5.921467543E-1,-9.809560776E-1,1.307499365E0
2.047947676E1,4.355337620E-1,-5.006201863E-1,-9.136867523E-1,1.129218185E0
2.049757979E1,1.524238586E-1,-4.275237322E-1,-6.905965805E-1,8.263977319E-1
2.051567262E1,9.304091334E-3,-3.827560842E-1,-8.712730408E-1,9.516856086E-1
2.053378236E1,2.364294231E-2,-2.320272326E-1,-1.097385406E0,1.121895876E0
2.055189137E1,2.566159368E-1,-4.119813442E-3,-1.075396538E0,1.105597768E0
2.056999116E1,4.920849800E-1,7.832694054E-2,-5.382061005E-1,7.334497554E-1
2.058809419E1,6.095736027E-1,1.034031212E-1,3.407125473E-1,7.059442063E-1
2.060619704E1,5.263767838E-1,1.408019662E-1,5.350008011E-1,7.636252808E-1
2.062429976E1,3.023084998E-1,1.636613607E-1,9.219646454E-2,3.559152401E-1
2.064240169E1,1.930214465E-2,3.960597515E-2,-2.178964615E-1,2.223062617E-1
2.066050648E1,-1.475145817E-1,-2.070164680E-2,-7.864570618E-2,1.684466001E-1
2.067860469E1,-3.078047633E-1,-1.539214551E-1,2.612895966E-1,4.320970261E-1
2.069671510E1,-3.176942170E-1,-1.615477204E-1,2.182216644E-1,4.179090527E-1
2.071481044E1,-2.383998632E-1,-1.022227407E-1,2.793312073E-3,2.594066038E-1
2.073291707E1,-2.215973884E-1,-2.444088459E-3,-1.280069351E-1,2.559241129E-1
2.075101991E1,-3.293245435E-1,3.841084242E-2,5.894565582E-2,3.367560513E-1
2.076912257E1,-6.302407980E-1,-8.511316776E-2,4.311084747E-2,6.374215716E-1
2.078722554E1,-7.826273441E-1,-9.987103939E-2,-5.285549164E-2,7.907423647E-1
2.080532106E1,-8.521693349E-1,-1.093057394E-1,1.200733185E-1,8.675009636E-1
2.082343135E1,-9.433522224E-1,-2.275091410E-1,3.322639465E-1,1.025706174E0
2.084153413E1,-1.089965701E0,-4.405454695E-1,7.516975403E-1,1.395404863E0
2.085963698E1,-8.912519813E-1,-5.304929614E-1,1.402175903E0,1.744090061E0
2.087773524E1,-5.447468758E-1,-5.665096045E-1,1.758996010E0,1.926590058E0
2.089583894E1,-3.760838211E-1,-4.126541615E-1,1.364398003E0,1.474213148E0
2.091394551E1,-4.467972219E-1,-1.838676035E-1,5.082721710E-1,7.012671766E-1
2.093204854E1,-5.053160191E-1,-4.316306114E-2,-2.634611130E-1,5.715059816E-1
2.095015175E1,-6.411125064E-1,-1.209527254E-3,-5.456066132E-1,8.418511063E-1
2.096824934E1,-9.620758891E-1,-5.495125055E-2,-5.810451508E-1,1.125265801E0
2.098635719E1,-1.528005481E0,-1.418598294E-1,-4.050569534E-1,1.587134555E0
2.100444691E1,-1.818796515E0,-1.518547237E-1,-4.038286209E-1,1.869266748E0
2.102255934E1,-1.704758167E0,-9.583082795E-2,-5.974826813E-1,1.808969185E0
2.104066914E1,-1.443703771E0,-1.289093494E-2,-7.884531021E-1,1.645024330E0
2.105876875E1,-1.067803741E0,8.390182257E-2,-6.930398941E-1,1.275754145E0
2.107687184E1,-6.713497639E-1,1.231684834E-1,-3.998804092E-1,7.910659406E-1
2.109496974E1,-3.420194387E-1,2.066584677E-1,-2.215681076E-1,4.569217056E-1
2.111307307E1,-1.559719294E-1,3.443653286E-1,-3.696107864E-1,5.287029939E-1
2.113118391E1,-3.935024738E-1,4.756213427E-1,-6.988153458E-1,9.324176886E-1
2.114928029E1,-7.086724043E-1,6.515910625E-1,-9.497222900E-1,1.352316501E0
2.116738594E1,-7.206653357E-1,8.379310966E-1,-1.069325447E0,1.537837430E0
2.118548866E1,-7.020247579E-1,9.027957916E-1,-1.012287140E0,1.527286566E0
2.120359163E1,-8.316291571E-1,8.625937104E-1,-8.427276611E-1,1.464877085E0
2.122169447E1,-8.951270580E-1,7.753925323E-1,-6.476650238E-1,1.349798508E0
2.123979713E1,-9.889969826E-1,5.027695894E-1,-3.688240051E-1,1.169155010E0
2.125790016E1,-9.987211823E-1,2.569069564E-1,-3.813209534E-1,1.099477537E0
2.127600307E1,-7.521234751E-1,1.085359752E-1,-3.395757675E-1,8.323349576E-1
2.129410573E1,-3.405014873E-1,1.046812534E-2,-1.081209183E-1,3.574086980E-1
2.131220869E1,-1.589410007E-1,-1.005109847E-1,2.864580154E-1,3.426702414E-1
2.133031050E1,-1.204267740E-1,-2.820280194E-1,5.973949432E-1,6.715081011E-1
2.134841060E1,-1.404589415E-2,-3.611037433E-1,6.087589264E-1,7.079411212E-1
2.136651582E1,-2.495040148E-1,-5.264962316E-1,1.997022629E-1,6.158989601E-1
2.138462214E1,-7.433638573E-1,-8.439741135E-1,4.637050629E-2,1.125625316E0
2.140272285E1,-9.651291966E-1,-1.168047428E0,8.513832092E-1,1.738005331E0
2.142082594E1,-6.446531415E-1,-1.408660769E0,2.304509163E0,2.776808477E0
2.143892860E1,-1.122903824E-1,-1.501494169E0,3.711045265E0,4.004865894E0
2.145703151E1,2.265028358E-1,-1.386246681E0,3.888376236E0,4.134302015E0
2.147512965E1,3.665441871E-1,-1.059609771E0,2.088555336E0,2.370483263E0
2.149323353E1,3.621197343E-1,-6.357120872E-1,9.752464294E-2,7.380864554E-1
2.151133748E1,3.510686159E-1,-3.683737516E-1,-8.940238953E-1,1.028701667E0
2.152944563E1,2.892849445E-1,-3.456628025E-1,-7.511405945E-1,8.760027082E-1
2.154754597E1,1.675962210E-1,-4.590152502E-1,-1.227655411E-1,5.038401247E-1
2.156564802E1,1.363163590E-1,-5.512551069E-1,7.291316986E-2,5.725213297E-1
2.158375227E1,3.323215246E-2,-6.237469912E-1,-3.391599655E-1,7.107701226E-1
2.160185328E1,-7.233268023E-2,-6.210952997E-1,-1.065273285E0,1.235232189E0
2.161995875E1,-5.445247889E-2,-5.701246262E-1,-1.194876671E0,1.325042422E0
2.163804066E1,1.039118767E-1,-4.317836761E-1,-6.696834564E-1,8.035612938E-1
2.165616603E1,2.175102830E-1,-2.447214127E-1,-4.971580505E-1,5.952859987E-1
2.167426576E1,1.006536484E-1,-2.776157856E-2,-7.587404251E-1,7.658909158E-1
2.174892989E1,-5.138566494E-1,3.985333443E-1,-1.183716774E0,1.350578722E0
2.176704170E1,-3.898096979E-1,4.771045446E-1,-1.081455231E0,1.244638808E0
2.178514601E1,-2.924981117E-1,4.868670106E-1,-7.831773758E-1,9.674509979E-1
2.180324776E1,-2.999539077E-1,4.445379376E-1,-5.474815369E-1,7.663695962E-1
2.182135170E1,-2.295701504E-1,4.597805738E-1,-2.361822128E-1,5.655817073E-1
2.183945320E1,-2.193890810E-1,4.099493623E-1,-9.672546387E-2,4.749166915E-1
2.185755269E1,-2.250009775E-1,3.921263218E-1,-1.143617630E-1,4.663336841E-1
2.187565932E1,-2.538227141E-1,3.673099875E-1,4.078865051E-2,4.483372739E-1
2.189376326E1,-2.784716189E-1,2.711296678E-1,3.012895584E-1,4.917653274E-1
2.191186464E1,-3.243660331E-1,1.386910677E-1,5.612382889E-1,6.629004092E-1
2.192996925E1,-4.676608145E-1,-6.314456463E-2,7.290344238E-1,8.684382906E-1
2.194806148E1,-5.838087201E-1,-3.834691644E-1,8.096075058E-1,1.069273368E0
2.196617134E1,-5.737307072E-1,-6.256442070E-1,1.110075951E0,1.397449897E0
2.198427986E1,-4.320486188E-1,-7.312611938E-1,1.364404678E0,1.607174250E0
2.200238032E1,-3.557010591E-1,-6.384820938E-1,1.417258263E0,1.594617073E0
2.202048207E1,-6.079958677E-1,-6.321276426E-1,1.223995209E0,1.505791686E0
2.203858644E1,-7.366808653E-1,-4.536403120E-1,5.897340775E-1,1.047031285E0
2.205668288E1,-7.498922944E-1,-1.965063810E-1,1.169004440E-1,7.839763548E-1
2.207478828E1,-1.006323099E0,-2.204658091E-1,-1.457424164E-1,1.040448079E0
2.209288740E1,-1.473163366E0,-6.420589089E-1,5.169849396E-1,1.688112370E0
2.211099666E1,-1.532695889E0,-1.149907351E0,1.778517723E0,2.614300843E0
2.212687367E1,-4.248424172E-1,-1.217633963E0,2.401108742E0,2.725517701E0
2.214492824E1,-3.448016047E-1,-1.028711677E0,1.468486786E0,1.825811957E0
2.216304149E1,-4.619795084E-1,-7.452570200E-1,6.118965149E-2,8.789637453E-1
2.218114769E1,-7.389631271E-1,-5.664295554E-1,-7.643013000E-1,1.204601769E0
2.219924895E1,-1.333890438E0,-6.301696301E-1,-1.100461960E0,1.840487432E0
2.221735185E1,-1.792745829E0,-6.920990944E-1,-1.227988243E0,2.280546840E0
2.223544905E1,-1.721919298E0,-6.951939464E-1,-9.350795746E-1,2.079104255E0
2.225355754E1,-1.400970459E0,-6.058648229E-1,-4.949302673E-1,1.604601627E0
2.227166032E1,-1.106760979E0,-4.379192591E-1,-6.457901001E-1,1.354155824E0
2.228976326E1,-9.815897942E-1,-2.531650364E-1,-1.210262299E0,1.578716533E0
2.230786665E1,-8.390589952E-1,-9.161651134E-2,-1.775599957E0,1.966003252E0
2.232596757E1,-6.080733538E-1,1.265103221E-1,-1.852475166E0,1.953822486E0
2.234407286E1,-6.413265467E-1,2.067785859E-1,-1.572875023E0,1.711137914E0
2.236217491E1,-8.451389670E-1,2.459979057E-1,-1.521531105E0,1.757791725E0
2.238027739E1,-1.117474437E0,2.651959658E-1,-1.519696236E0,1.904876549E0
2.239838057E1,-1.331923723E0,2.613466382E-1,-1.154589653E0,1.781965246E0
2.241648308E1,-1.474823952E0,1.030055881E-1,-5.504226685E-1,1.577555373E0
2.243457649E1,-1.366885424E0,-7.311597466E-2,5.936813354E-2,1.370126375E0
2.245268901E1,-1.176048040E0,-1.651099771E-1,2.902603149E-1,1.222538894E0
2.247079045E1,-9.849132895E-1,-1.082161963E-1,1.180000305E-1,9.978421420E-1
2.248889558E1,-8.306544423E-1,3.179818392E-3,-2.889986038E-1,8.794982131E-1
2.250699818E1,-6.921893358E-1,1.253757477E-1,-4.341936111E-1,8.266615067E-1
2.252510066E1,-4.496825337E-1,2.334804535E-1,-1.982021332E-1,5.440694707E-1
2.254319066E1,-2.717764378E-1,2.855256796E-1,6.688404083E-2,3.998259881E-1
2.256130018E1,-5.192623734E-1,1.154783070E-1,1.820793152E-1,5.622468576E-1
2.257940040E1,-7.929325700E-1,-4.817596078E-2,1.804151535E-1,8.146242148E-1
2.259751204E1,-1.268486023E0,-3.358575106E-1,4.810056686E-1,1.397577730E0
2.261561494E1,-1.819479465E0,-8.610853553E-1,1.280047417E0,2.385475823E0
2.263371355E1,-1.682292223E0,-1.286420465E0,2.495628357E0,3.273094198E0
2.265181911E1,-1.173246384E0,-1.538743973E0,3.684607506E0,4.161799198E0
2.266992467E1,-8.036707640E-1,-1.618868947E0,3.911953926E0,4.309293084E0
2.268802611E1,-6.264364719E-1,-1.429756403E0,2.815049171E0,3.218870588E0
2.270612950E1,-4.931640029E-1,-1.130222797E0,1.399853706E0,1.865530676E0
2.272423198E1,-2.783514857E-1,-8.334984779E-1,6.357574463E-2,8.810454799E-1
2.274233500E1,-4.525178671E-2,-5.708083510E-1,-6.895523071E-1,8.962992146E-1
2.276043770E1,2.404361963E-2,-4.332026243E-1,-8.046512604E-1,9.141697108E-1
2.277853633E1,-1.531475782E-1,-4.443191588E-1,-5.890979767E-1,7.535981169E-1
2.279664360E1,-5.803780556E-1,-6.879448891E-1,-4.092855453E-1,9.887474477E-1
2.281474150E1,-7.725687623E-1,-8.644494414E-1,-2.269687653E-1,1.181376379E0
2.283284959E1,-7.855910063E-1,-1.036637783E0,-6.451034546E-2,1.302279811E0
2.285095030E1,-6.888109446E-1,-1.132915735E0,-7.912635803E-3,1.325903914E0
2.286905672E1,-4.642721117E-1,-1.035628319E0,-1.344270706E-1,1.142867116E0
2.288715800E1,-2.725761831E-1,-7.952337861E-1,-3.677940369E-1,9.175876000E-1
2.290526118E1,-2.012877464E-1,-4.489158392E-1,-7.315645218E-1,8.816058286E-1
2.292336345E1,-2.437704802E-1,-2.176181078E-1,-1.243350029E0,1.285574184E0
2.294146577E1,-3.982921541E-1,-1.003211737E-1,-1.464725494E0,1.521223768E0
2.295956972E1,-4.236643910E-1,-9.366261959E-2,-1.279385567E0,1.350959522E0
2.297766035E1,-4.064332545E-1,-1.718515158E-1,-6.874084473E-1,8.168545202E-1
2.299577342E1,-3.155203462E-1,-1.705345809E-1,-2.838373184E-1,4.573825046E-1
2.301387428E1,-3.446461260E-1,-1.088585854E-1,-4.266967773E-1,5.591969989E-1
2.303198097E1,-3.963373601E-1,1.283410192E-2,-6.931352615E-1,7.985515062E-1
2.305008345E1,-2.516003847E-1,1.018548310E-1,-7.801580429E-1,8.260288930E-1
2.306818562E1,7.423001528E-2,1.857206821E-1,-5.958652496E-1,6.285361268E-1
2.308628996E1,3.497500420E-1,2.485329211E-1,-2.709407806E-1,5.074471513E-1
2.310439213E1,2.469087839E-1,3.316620290E-1,-2.515010834E-1,4.839591346E-1
2.312247896E1,-2.484434843E-2,5.164972544E-1,-6.415338516E-1,8.239856420E-1
2.314059804E1,-1.772466898E-1,6.912435889E-1,-9.745845795E-1,1.207911086E0
2.315868904E1,-5.497586727E-2,8.669338226E-1,-6.954517365E-1,1.112766695E0
2.317680351E1,8.437877893E-2,8.446630239E-1,-3.301239014E-2,8.495088112E-1
2.319490645E1,-5.689632893E-2,7.237732410E-1,5.738878250E-1,9.254361849E-1
2.321300923E1,-1.755117178E-1,5.821750164E-1,9.289693832E-1,1.110277545E0
2.323111232E1,-2.345984578E-1,4.190557599E-1,6.396894455E-1,7.999042149E-1
2.324921516E1,-2.531979978E-1,3.109971285E-1,1.814899445E-1,4.401897772E-1
2.326731804E1,-3.281736076E-1,1.709827483E-1,3.657102585E-1,5.202662877E-1
2.328542061E1,-4.774938822E-1,-9.294664860E-2,1.022840500E0,1.132626229E0
2.330352373E1,-1.007288337E0,-7.052088976E-1,1.622875214E0,2.036092665E0
2.332161479E1,-1.341194153E0,-1.178868890E0,1.736396790E0,2.490704203E0
2.333972941E1,-1.026981831E0,-1.211052656E0,1.683266640E0,2.314028262E0
2.335783223E1,-7.422139645E-1,-9.592218995E-1,1.483242035E0,1.915984122E0
2.337593510E1,-6.596295834E-1,-7.124187350E-1,1.118691444E0,1.481256963E0
2.339403328E1,-6.619833112E-1,-5.526676774E-1,1.012175560E0,1.329722840E0
2.341214104E1,-8.470953703E-1,-5.961039662E-1,1.192468643E0,1.579522703E0
2.343024358E1,-7.895631790E-1,-6.139285564E-1,1.076401711E0,1.469339623E0
2.344834590E1,-5.171902776E-1,-3.931300640E-1,4.626646042E-1,7.975559958E-1
2.346643620E1,-3.656358123E-1,-1.253694147E-1,-5.419435501E-1,6.656649674E-1
2.348455269E1,-4.816018343E-1,1.713164151E-2,-1.000282288E0,1.110314584E0
2.350265474E1,-7.823763490E-1,4.664723575E-2,-1.087899208E0,1.340825642E0
2.352075746E1,-1.035419583E0,-1.179303229E-2,-1.046815872E0,1.472432090E0
2.353886003E1,-1.176706433E0,-1.519766897E-1,-8.498334885E-1,1.459435474E0
2.355696528E1,-1.184437275E0,-2.889823616E-1,-6.216316223E-1,1.368513185E0
2.357506633E1,-8.688247204E-1,-3.076575994E-1,-3.952188492E-1,1.002849706E0
2.359316969E1,-5.085757375E-1,-2.405568957E-1,-3.381528854E-1,6.564025250E-1
2.361125947E1,-1.907639652E-1,-6.668557227E-2,-5.898189545E-1,6.234775497E-1
2.362937678E1,-8.678182214E-2,9.933090210E-2,-9.728689194E-1,9.817696507E-1
2.364747795E1,-2.199533731E-1,2.639738917E-1,-1.067652702E0,1.121581025E0
2.366558089E1,-3.161936402E-1,3.554102480E-1,-1.085544586E0,1.185201211E0
2.368368388E1,-4.104222059E-1,4.029558599E-1,-1.041243553E0,1.189541067E0
2.370178682E1,-5.538250208E-1,3.204288781E-1,-9.149761200E-1,1.116502629E0
2.371988933E1,-7.041532993E-1,2.121611834E-1,-8.694553375E-1,1.138769872E0
2.373799205E1,-8.016604185E-1,9.946285933E-2,-1.047921181E0,1.323136836E0
2.375609596E1,-7.388974428E-1,1.062921360E-1,-1.362169266E0,1.553310194E0
2.377419380E1,-5.855834484E-1,1.782297939E-1,-1.601846695E0,1.714813887E0
2.379230095E1,-4.786737561E-1,2.655408382E-1,-1.500920296E0,1.597623934E0
2.381040434E1,-2.742212415E-1,3.609862030E-1,-1.128803253E0,1.216431302E0
2.382850633E1,-1.559884250E-1,4.382381439E-1,-8.435668945E-1,9.633224616E-1
2.384660600E1,-1.497687399E-1,4.977626204E-1,-5.695629120E-1,7.711032437E-1
2.386471278E1,-1.649907231E-2,5.704311728E-1,-4.113502502E-1,7.034720824E-1
2.388281550E1,1.625353843E-1,6.044390798E-1,-7.405185699E-2,6.302761536E-1
2.390091792E1,1.590092480E-1,5.453439355E-1,4.784908295E-1,7.427229785E-1
2.391902202E1,1.115301847E-1,5.290964842E-1,8.720808029E-1,1.026112566E0
2.393712419E1,-5.943001062E-2,5.531723499E-1,8.203344345E-1,9.912013717E-1
2.395521544E1,-4.764821529E-1,3.404847682E-1,1.033286095E0,1.187705887E0
2.397332521E1,-6.648009419E-1,5.404954776E-2,2.055605888E0,2.161110181E0
2.399143306E1,-6.522191167E-1,-3.634743690E-1,3.591028214E0,3.667831379E0
2.400953581E1,-6.249908805E-1,-9.125428200E-1,4.049234390E0,4.197576342E0
2.402763893E1,-4.333319068E-1,-1.180415988E0,4.034909248E0,4.226304661E0
2.404574156E1,6.273670495E-2,-1.133678555E0,3.371600151E0,3.557646770E0
2.406384444E1,4.907094836E-1,-9.437030554E-1,2.308652878E0,2.541898771E0
2.408194740E1,9.063555002E-1,-5.482633710E-1,9.570293427E-1,1.427577731E0
2.410005037E1,1.338096142E0,-8.438131213E-2,-7.548742294E-1,1.538654150E0
2.411815315E1,1.608432770E0,2.481105030E-1,-1.702916145E0,2.355533527E0
2.413624434E1,1.427639961E0,2.826319933E-1,-1.647909164E0,2.198554370E0
2.415434685E1,9.308820963E-1,8.777319640E-2,-1.310371399E0,1.609757377E0
2.417245827E1,3.607031107E-1,-1.903626621E-1,-1.301657677E0,1.364059157E0
2.419056480E1,-2.243527770E-2,-4.353073835E-1,-1.180699348E0,1.258589215E0
2.420866765E1,-5.136798322E-2,-7.141133547E-1,-7.051935196E-1,1.004935049E0
2.422675899E1,1.167942882E-1,-9.161535501E-1,-1.769733429E-2,9.237377490E-1
2.424487358E1,2.464781106E-1,-1.072354198E0,4.496479034E-1,1.188645541E0
2.426297636E1,3.823148608E-1,-1.048464179E0,4.334602356E-1,1.197217425E0
2.428107933E1,5.136687160E-1,-9.635816813E-1,5.984878540E-2,1.093584511E0
2.429916398E1,6.680667400E-1,-7.724693418E-1,-2.833967209E-1,1.059875349E0
2.431728349E1,6.526281834E-1,-5.923524499E-1,-6.249237061E-1,1.080432603E0
2.433538948E1,5.085968971E-1,-4.186798036E-1,-7.297191620E-1,9.830837386E-1
2.435348628E1,3.497642875E-1,-2.155746818E-1,-7.042512894E-1,8.153388123E-1
2.437159489E1,2.719881237E-1,1.076962799E-3,-7.362680435E-1,7.849008416E-1
2.438969563E1,2.303104103E-1,2.667033672E-1,-9.715137482E-1,1.033446919E0
2.440779982E1,1.341516078E-1,4.723905623E-1,-1.438792229E0,1.520287004E0
2.442590306E1,2.847447991E-2,6.210197806E-1,-1.582426071E0,1.700161355E0
2.444400551E1,4.832330346E-2,6.621370912E-1,-1.017694473E0,1.215097819E0
2.446210850E1,1.060853899E-1,6.460201144E-1,-2.723293304E-1,7.090552605E-1
2.448021089E1,1.457611620E-1,6.724855900E-1,-5.581378937E-2,6.903610390E-1
2.449831132E1,1.333064139E-1,7.659296393E-1,-1.716241837E-1,7.961618383E-1
2.451641722E1,1.737579703E-1,8.756137490E-1,-3.562736511E-1,9.611566908E-1
2.453452000E1,1.963741779E-1,9.104803801E-1,-2.353792191E-1,9.606980363E-1
2.455262312E1,8.562140167E-2,8.318376541E-1,7.441902161E-2,8.395374310E-1
2.457072603E1,-1.940312237E-1,6.757068634E-1,8.606719971E-2,7.082622705E-1
2.458882878E1,-4.784497321E-1,4.246596098E-1,-1.044244766E-1,6.481931823E-1
2.460693193E1,-6.292702556E-1,1.984283626E-1,-6.719684601E-2,6.632271751E-1
2.462502333E1,-6.592043638E-1,1.468174458E-1,-2.760238647E-1,7.295854505E-1
2.464311980E1,-1.178791046E0,-3.809911013E-2,-4.272470474E-1,1.254408192E0
2.466124006E1,-1.644928098E0,-3.935667574E-1,-4.512329102E-1,1.750512604E0
2.467934392E1,-1.780099988E0,-8.825368285E-1,3.886137009E-1,2.024511751E0
2.469744633E1,-1.532903194E0,-1.501791954E0,1.868429184E0,2.845382029E0
2.471554811E1,-9.579407573E-1,-1.875014544E0,3.766698837E0,4.315246246E0
2.473364882E1,-4.578766823E-1,-1.977747917E0,4.832267761E0,5.241369057E0
2.475175517E1,-1.209849119E-1,-1.607505560E0,4.059913635E0,4.368250245E0
2.476985844E1,-2.660392821E-1,-1.149513245E0,1.789438248E0,2.143419427E0
2.478794926E1,-6.131724715E-1,-6.833317280E-1,-4.381179810E-2,9.191529818E-1
2.480605943E1,-1.151008010E0,-5.635846257E-1,-6.055240631E-1,1.417429526E0
2.482416701E1,-1.858790994E0,-8.111102581E-1,-5.083427429E-1,2.090793188E0
2.484225377E1,-2.073839188E0,-1.095401883E0,-3.831319809E-1,2.376447848E0
2.486037239E1,-1.697834969E0,-1.252966404E0,7.815456390E-2,2.111557843E0
2.487847661E1,-1.104382038E0,-1.097238183E0,4.081716537E-1,1.609408405E0
2.489657869E1,-5.148862004E-1,-7.307077646E-1,-2.158746719E-1,9.195887726E-1
2.491468172E1,-2.374161631E-1,-3.610293865E-1,-1.035865784E0,1.122375416E0
2.493278023E1,-2.814952433E-1,-6.608253717E-2,-1.835804462E0,1.858436035E0
2.495088551E1,-4.700547457E-1,1.638844013E-1,-2.420634747E0,2.471291593E0
2.496899263E1,-5.018672347E-1,3.413386345E-1,-2.717881680E0,2.784827393E0
2.498708162E1,-5.226439238E-1,3.727354109E-1,-2.319362640E0,2.406560079E0
2.500519472E1,-5.881014466E-1,3.507950008E-1,-1.420080185E0,1.576562138E0
2.502330104E1,-6.244468689E-1,2.763295472E-1,-1.149086952E0,1.336672261E0
2.504140214E1,-5.202522874E-1,2.610768378E-1,-1.132262230E0,1.273122663E0
2.505950542E1,-4.466937482E-1,2.161107808E-1,-1.053246498E0,1.164288349E0
2.507760841E1,-4.432161450E-1,1.429364532E-1,-7.931909561E-1,9.197952347E-1
2.509571107E1,-3.458198011E-1,1.439909637E-1,-3.831815720E-1,5.358664475E-1
2.511381428E1,-3.945175707E-1,2.372752577E-1,-2.763566971E-1,5.369512879E-1
2.513190825E1,-6.844261289E-1,3.322498798E-1,-5.762987137E-1,9.544366485E-1
2.515002025E1,-9.180302620E-1,4.326643348E-1,-8.634080887E-1,1.332460700E0
2.516812297E1,-1.038562655E0,4.693102837E-1,-8.376827240E-1,1.414417505E0
2.518622420E1,-1.098703146E0,4.361345768E-1,-5.094881058E-1,1.287221854E0
2.520432817E1,-1.059881449E0,4.150764346E-1,-1.478252411E-1,1.147819426E0
2.522242918E1,-9.284369946E-1,4.084933996E-1,7.666110992E-2,1.017221233E0
2.524052473E1,-7.604105473E-1,6.199619174E-1,1.742362976E-2,9.812647768E-1
2.525863161E1,-8.489633799E-1,5.690516233E-1,-3.937187195E-1,1.095250200E0
2.527674074E1,-1.268204808E0,3.047052920E-1,-1.710090637E-1,1.315459179E0
2.529483980E1,-1.713322759E0,-1.184054911E-1,1.869544983E-1,1.727555128E0
2.531294386E1,-1.935697436E0,-4.983476400E-1,1.071353912E0,2.267834681E0
2.533105250E1,-1.678008080E0,-7.747564316E-1,2.156948090E0,2.840490047E0
2.534915260E1,-1.252108216E0,-7.699341774E-1,2.683709145E0,3.059880454E0
2.536723756E1,-1.056697369E0,-6.040499210E-1,2.232011795E0,2.542314357E0
2.538535859E1,-8.658514023E-1,-4.393562078E-1,1.730453491E0,1.984238346E0
2.540346144E1,-7.789733410E-1,-3.413580656E-1,1.275015831E0,1.532641564E0
2.542156935E1,-6.772515774E-1,-2.524827719E-1,9.965295792E-1,1.231051766E0
2.543966737E1,-7.385011911E-1,-2.589935064E-1,1.061199188E0,1.318561854E0
2.545777040E1,-5.925347805E-1,-1.539563537E-1,7.340764999E-1,9.558599964E-1
2.547587349E1,-5.716649294E-1,-8.151200414E-2,3.029623032E-1,6.520975046E-1
2.549397334E1,-7.550704479E-1,-7.367083430E-2,3.322792053E-2,7.593832154E-1
2.551208241E1,-9.058297873E-1,-3.378465772E-2,-2.719945908E-1,9.463879035E-1
2.553018135E1,-8.632115722E-1,7.933855057E-3,-7.848758698E-1,1.166716459E0
2.554828633E1,-6.905828714E-1,5.459988117E-2,-1.293904305E0,1.467676462E0
2.556638814E1,-3.940792382E-1,5.151845515E-2,-1.350708008E0,1.407964744E0
2.558448073E1,-9.756192565E-2,6.533652544E-3,-8.202247620E-1,8.260324922E-1
2.560258204E1,6.996461749E-2,-4.144537449E-2,-1.932134628E-1,2.096287408E-1
2.562068580E1,9.789669514E-2,-5.874809623E-2,-1.684093475E-1,2.034620605E-1
2.563878883E1,-1.446908712E-2,-3.320717812E-2,-4.451904297E-1,4.466616055E-1
2.565689241E1,-7.686014473E-2,-5.230289698E-2,-6.762809753E-1,6.826412180E-1
2.567499696E1,3.517127037E-2,-6.728072464E-2,-5.289793015E-1,5.343994906E-1
2.569309840E1,1.629352272E-1,-5.573768914E-2,-1.326751709E-2,1.727153880E-1
2.571120027E1,3.700023890E-1,2.010157704E-2,1.684970856E-1,4.070590978E-1
2.572930391E1,5.224263072E-1,1.402646601E-1,-1.944656372E-1,5.748219771E-1
2.574740712E1,3.698320687E-1,2.096621990E-1,-6.989889145E-1,8.181194896E-1
2.576550954E1,4.337877035E-2,1.901429296E-1,-8.968791962E-1,9.178389531E-1
2.578361268E1,-1.631242037E-2,2.292336524E-1,-9.111747742E-1,9.397093335E-1
2.580171785E1,1.293450296E-1,3.886339664E-1,-7.803382874E-1,8.813026377E-1
2.581981746E1,2.222531140E-1,4.468211532E-1,-4.858293533E-1,6.964737972E-1
2.583792158E1,1.782821417E-1,5.377712250E-1,1.540174484E-1,5.871147987E-1
2.585602723E1,-4.216265678E-2,4.485282302E-1,5.579423904E-1,7.171157326E-1
2.587413887E1,-5.503196120E-1,2.092524171E-1,7.781887054E-1,9.758155106E-1
2.589224049E1,-1.177854657E0,-3.010758013E-2,5.997695923E-1,1.322108779E0
2.591034065E1,-1.353853583E0,-9.663808346E-2,1.879501343E-1,1.370249502E0
2.592844667E1,-1.141382694E0,1.560204923E-1,-1.987867355E-1,1.169022247E0
2.594655104E1,-9.816683531E-1,3.180374503E-1,-2.261152267E-1,1.056384717E0
2.596465388E1,-1.324866295E0,1.603392959E-1,-2.677392960E-1,1.361125901E0
2.598275685E1,-1.947947741E0,-2.875187099E-1,3.420877457E-1,1.998547331E0
2.600085982E1,-1.892938733E0,-9.749627709E-1,1.711700439E0,2.731975082E0
2.601896290E1,-1.156337976E0,-1.569026232E0,3.557850838E0,4.056755282E0
2.603706575E1,-3.287248313E-1,-1.704990625E0,4.852800369E0,5.154097833E0
2.605515913E1,-2.311658859E-2,-1.366187453E0,4.985808372E0,5.169650632E0
2.607326918E1,-3.721122146E-1,-9.179406166E-1,3.317186356E0,3.461908115E0
2.609137752E1,-7.578749061E-1,-3.889918923E-1,1.001586914E0,1.314863267E0
2.610947810E1,-1.172726393E0,-2.710431814E-3,-1.097302437E0,1.606040839E0
2.612757826E1,-1.858566284E0,1.560978889E-1,-2.240139008E0,2.914937042E0
2.614568153E1,-2.515012980E0,2.775441855E-2,-2.514500618E0,3.556511486E0
2.616378682E1,-2.662471056E0,-1.240036562E-1,-2.168919563E0,3.436326687E0
2.618188991E1,-2.299364090E0,-3.140827119E-1,-1.566431999E0,2.799898637E0
2.619998122E1,-1.656627774E0,-4.624105096E-1,-7.326364517E-1,1.869490634E0
2.621809108E1,-1.187330842E0,-5.051680803E-1,-9.308528900E-2,1.293682414E0
2.623619868E1,-7.404471636E-1,-3.500040770E-1,-2.304077148E-3,8.190055950E-1
2.625430177E1,-3.127431273E-1,-1.045139879E-1,-5.866098404E-1,6.729357638E-1
2.627240358E1,-1.638032198E-1,2.124933600E-1,-1.130274773E0,1.161682394E0
2.629050905E1,-2.316246927E-1,3.890475035E-1,-1.176065445E0,1.260213430E0
2.630861091E1,-1.974783391E-1,4.938405454E-1,-9.072151184E-1,1.051625147E0
2.632671376E1,-1.872081906E-1,5.289357305E-1,-5.869913101E-1,8.120213739E-1
2.634481306E1,-3.321933150E-1,5.396928787E-1,-3.413476944E-1,7.198187622E-1
2.636291994E1,-4.740760326E-1,5.594415069E-1,-4.985389709E-1,8.867152812E-1
2.638102272E1,-5.954766273E-1,5.906460881E-1,-8.543796539E-1,1.197255114E0
2.639910890E1,-5.954526067E-1,5.880769491E-1,-9.903669357E-1,1.296620597E0
2.641722572E1,-4.311746061E-1,5.234031677E-1,-4.882793427E-1,8.356309792E-1
2.643533479E1,-2.975237966E-1,3.766634464E-1,7.202053070E-2,4.853686416E-1
2.645343464E1,-1.722711921E-1,3.091920316E-1,2.458810806E-1,4.309693514E-1
2.647153810E1,-1.350349784E-1,2.947770655E-1,9.048843384E-2,3.366245986E-1
2.648964082E1,-1.974156201E-1,3.673705757E-1,-1.375522614E-1,4.391522419E-1
2.650774415E1,-4.235283136E-1,1.581674814E-1,-5.970067978E-1,7.488726869E-1
2.652584700E1,-3.508037031E-1,1.664207578E-1,-6.467819214E-1,7.543778632E-1
2.654393733E1,-1.504448056E-1,7.589727640E-2,-3.916511536E-1,4.263621257E-1
2.656205311E1,-4.212859869E-1,-2.348552942E-1,1.977262497E-1,5.212816530E-1
2.658015645E1,-8.052257299E-1,-6.333379745E-1,7.596445084E-1,1.275368670E0
2.659825349E1,-4.983585477E-1,-8.919070959E-1,1.915046692E0,2.170544481E0
2.661636183E1,-2.957961261E-1,-1.197318316E0,2.788904190E0,3.049434879E0
2.663446486E1,-1.314791143E-1,-1.170717955E0,3.113258362E0,3.328700184E0
2.665256697E1,-1.377990544E-1,-1.072615862E0,2.601885796E0,2.817676891E0
2.667067238E1,5.041080713E-2,-8.675962687E-1,1.541521072E0,1.769619098E0
2.668877382E1,2.889345884E-1,-5.976771116E-1,5.063457489E-1,8.349174472E-1
2.670687721E1,3.054590821E-1,-2.844016850E-1,-6.642713547E-1,7.845036660E-1
2.672497548E1,1.989562511E-1,1.133620739E-2,-1.718964577E0,1.730477193E0
2.674307124E1,6.045407057E-2,2.011931539E-1,-2.016050816E0,2.026966766E0
2.676118336E1,-9.140795469E-2,2.193683982E-1,-1.761671066E0,1.777628435E0
2.683586055E1,-7.204637527E-1,-3.899098039E-1,1.893177032E-1,8.407965669E-1
2.685395637E1,-5.082281828E-1,-3.330829740E-1,3.901748657E-1,7.221333528E-1
2.687207002E1,-2.863129079E-1,-2.482702136E-1,3.671579361E-1,5.276534187E-1
2.689016829E1,-3.190691173E-1,-1.539407372E-1,4.292783737E-1,5.565813277E-1
2.690827394E1,-4.522781670E-1,-2.463823557E-2,1.408481598E-2,4.531677008E-1
2.692637495E1,-5.663275719E-1,2.118970156E-1,-7.210597992E-1,9.410390523E-1
2.694447926E1,-5.906281471E-1,4.433990717E-1,-1.341960907E0,1.531764806E0
2.696258137E1,-4.357002378E-1,6.212623715E-1,-1.747564316E0,1.905198853E0
2.698068501E1,-3.321637213E-1,7.477794886E-1,-1.538129807E0,1.742225646E0
2.699878712E1,-4.194556475E-1,6.546419859E-1,-1.023414612E0,1.285253530E0
2.701688820E1,-2.522079051E-1,5.814529657E-1,-6.495742798E-1,9.075478630E-1
2.703499635E1,5.617758632E-2,6.292042732E-1,-1.084042549E0,1.254672143E0
2.705309718E1,1.804318428E-1,6.159915328E-1,-7.651357651E-1,9.987161546E-1
2.707119923E1,4.459656775E-1,5.675811768E-1,1.917276382E-1,7.468555851E-1
2.708930348E1,6.940467358E-1,4.868475795E-1,1.092273712E0,1.382672521E0
2.710740071E1,5.978822112E-1,3.993968964E-1,1.337950706E0,1.518911818E0
2.712550947E1,2.495253086E-1,4.027013183E-1,8.902616501E-1,1.008462710E0
2.714359962E1,3.316971660E-2,4.525004625E-1,4.925842285E-1,6.696985298E-1
2.716171559E1,-1.161822230E-1,3.624271154E-1,2.474956512E-1,4.539887888E-1
2.717981819E1,-3.223585710E-2,2.531182766E-1,6.925010681E-2,2.643928700E-1
2.719792134E1,9.369366616E-2,1.817922592E-1,4.275131226E-2,2.089368404E-1
2.721602150E1,7.814162970E-2,4.662287235E-2,1.749439240E-1,1.971932632E-1
2.723412849E1,-1.678894162E-1,-4.354195595E-1,4.020662308E-1,6.159823884E-1
2.725223128E1,-4.581719339E-1,-1.130308151E0,1.151269913E0,1.677182295E0
2.727033241E1,-5.494930744E-1,-1.734623671E0,1.717699051E0,2.502269359E0
2.728843684E1,-3.912267685E-1,-1.878599167E0,2.013929367E0,2.781744904E0
2.730653981E1,-5.810363293E-1,-1.782396317E0,1.938385963E0,2.696642355E0
2.732464210E1,-7.707723975E-1,-1.263668299E0,1.359575272E0,2.009824016E0
2.734273360E1,-6.632531285E-1,-7.166258693E-1,-1.859617233E-1,9.940015652E-1
2.736084523E1,-6.648039222E-1,-3.228690326E-1,-1.218599319E0,1.425199273E0
2.737895442E1,-7.315400243E-1,-1.683648825E-1,-1.696152687E0,1.854840014E0
2.739705428E1,-7.207751274E-1,-1.415556669E-1,-1.805277824E0,1.948995335E0
2.741515767E1,-7.421657443E-1,-2.130472362E-1,-1.346552849E0,1.552225400E0
2.743325685E1,-7.361196280E-1,-3.507739604E-1,-7.557039261E-1,1.111756674E0
2.745136720E1,-5.404481888E-1,-6.143753529E-1,7.954597473E-3,8.182937092E-1
2.746946632E1,-3.637958467E-1,-8.592984676E-1,8.432931900E-1,1.257729971E0
2.748756886E1,-2.785920501E-1,-8.143612742E-1,1.220740318E0,1.493654826E0
2.750567213E1,-9.926219285E-2,-4.033474922E-1,7.352285385E-1,8.444543719E-1
2.752377638E1,-1.705445945E-1,2.840510011E-2,-4.683256149E-1,4.992205825E-1
2.754187111E1,-4.078539014E-1,3.021173477E-1,-1.475968361E0,1.560801813E0
2.755998256E1,-4.368253946E-1,4.012854099E-1,-1.560929298E0,1.669834327E0
2.757808388E1,-4.330181479E-1,3.764463067E-1,-9.095687866E-1,1.075421739E0
2.759618825E1,-4.639919996E-1,4.414509535E-1,-3.190984726E-1,7.155357121E-1
2.761429060E1,-5.401418209E-1,5.195417404E-1,-2.641687393E-1,7.946457887E-1
2.763239430E1,-4.383513033E-1,5.801711082E-1,-6.814937592E-1,9.965862350E-1
2.765049629E1,-2.660782337E-1,5.394619107E-1,-8.918399811E-1,1.075730139E0
2.766860066E1,-9.553372860E-2,4.691668749E-1,-4.937572479E-1,6.877793757E-1
2.768669807E1,-4.592812061E-2,4.103612900E-1,-2.300167084E-2,4.135636075E-1
2.770480080E1,1.235270500E-2,4.784308076E-1,2.699470520E-2,4.793509582E-1
2.772291035E1,-4.400318861E-2,6.104124188E-1,-2.535705566E-1,6.624482085E-1
2.774101149E1,-9.507232904E-2,7.370424867E-1,-5.095033646E-1,9.010349901E-1
2.775911623E1,-1.071843505E-1,7.526483536E-1,-3.931541443E-1,8.558844608E-1
2.777721852E1,1.219147444E-2,6.203238368E-1,-1.433820724E-1,6.367956605E-1
2.779532082E1,-1.392322779E-2,3.833824396E-1,3.374824524E-1,5.109504447E-1
2.781343141E1,-1.175827980E-1,1.009845734E-2,5.472297668E-1,5.598107814E-1
2.783152693E1,-2.674787641E-1,-6.879546642E-1,5.265750885E-1,9.067016230E-1
2.784963057E1,1.621127129E-1,-1.299241424E0,6.814088821E-1,1.476017233E0
2.786773317E1,5.569272041E-1,-1.641525269E0,1.379137039E0,2.215128008E0
2.788583699E1,4.096856713E-1,-1.817001343E0,1.954437256E0,2.699844665E0
2.790393648E1,-3.434348106E-2,-2.017121792E0,1.730925560E0,2.658206744E0
2.792204597E1,-6.701326370E-2,-2.098133087E0,1.786734581E0,2.756641742E0
2.794014546E1,2.486822605E-1,-2.021508694E0,1.381090164E0,2.460843414E0
2.795824885E1,6.189960241E-2,-1.394403338E0,6.839876175E-1,1.554358804E0
2.797635139E1,2.639371157E-2,-6.842180490E-1,-4.742765427E-1,8.329400972E-1
2.799445503E1,1.170369387E-1,-2.530694008E-2,-1.415390968E0,1.420447000E0
2.801255739E1,1.338089108E-1,3.737430573E-1,-1.842733860E0,1.885008429E0
2.803066139E1,3.274499178E-1,6.130574942E-1,-1.837438583E0,1.964495734E0
2.804876124E1,2.938712239E-1,6.816486120E-1,-1.545173645E0,1.714224816E0
2.806686531E1,1.067788601E-1,5.812304020E-1,-1.164101601E0,1.305512559E0
2.808496974E1,-3.893065453E-2,4.155128896E-1,-6.351022720E-1,7.599483227E-1
2.810307368E1,1.497633457E-1,1.649011970E-1,-1.071443558E-1,2.471869282E-1
2.812117610E1,4.867404699E-2,-3.999677300E-2,4.490785599E-1,4.534759725E-1
2.813927980E1,1.331567764E-4,-1.283410937E-1,6.525278091E-1,6.650293195E-1
2.815738155E1,1.060295105E-1,-4.753115773E-2,3.294839859E-1,3.493725304E-1
2.817548811E1,1.712360978E-1,1.944477558E-1,-2.522211075E-1,3.615898477E-1
2.819358412E1,1.648012400E-1,3.769223094E-1,-6.906166077E-1,8.038539512E-1
2.821169569E1,1.876155734E-1,3.846316934E-1,-7.469263077E-1,8.608368324E-1
2.822979396E1,1.649261713E-1,3.100900948E-1,-3.573637009E-1,5.010641911E-1
2.824789802E1,1.055592895E-1,2.976343334E-1,-4.929828644E-2,3.196236553E-1
2.826600069E1,1.502671242E-1,5.522199273E-1,-5.604934692E-2,5.750378996E-1
2.828410426E1,1.050363183E-1,7.946119308E-1,-4.404544830E-1,9.145714299E-1
2.830220613E1,2.535902262E-1,9.303182364E-1,-6.379404068E-1,1.156186830E0
2.832030934E1,5.997109413E-1,7.488569021E-1,-3.789396286E-1,1.031520778E0
2.833840559E1,6.657464504E-1,5.026243329E-1,3.185367584E-2,8.347839319E-1
2.835651607E1,7.295125723E-1,3.797974288E-1,3.991231918E-1,9.141848841E-1
2.837461842E1,7.736260891E-1,3.111100495E-1,3.363227844E-1,8.991105627E-1
2.839272365E1,8.281979561E-1,2.177695036E-1,2.694931030E-1,8.977538325E-1
2.841082399E1,8.628162146E-1,1.230787039E-1,3.183975220E-1,9.278885544E-1
2.842892848E1,1.030468464E0,-2.673745155E-3,2.012920380E-1,1.049948041E0
2.844703053E1,9.411743283E-1,-5.393472314E-2,7.807826996E-2,9.459462389E-1
2.846513478E1,9.704201221E-1,2.311766148E-3,3.050489426E-1,1.017239114E0
2.848323714E1,1.197304964E0,-3.910371363E-1,6.215496063E-1,1.404554425E0
2.850134059E1,1.339513898E0,-1.077534676E0,1.423128128E0,2.231741949E0
2.851942799E1,1.162390113E0,-1.932920098E0,2.906640053E0,3.679115013E0
2.853754426E1,9.432164431E-1,-2.452215672E0,4.022976875E0,4.804930998E0
2.855565181E1,1.078185678E0,-2.213996887E0,3.309583664E0,4.125240672E0
2.857375154E1,1.313347340E0,-1.387096643E0,1.061923981E0,2.185543611E0
2.859185615E1,1.052242875E0,-6.954029799E-1,-4.989461899E-1,1.356372984E0
2.860995924E1,7.358199954E-1,-4.139553607E-1,-1.059528351E0,1.354765822E0
2.862806136E1,4.513245821E-1,-4.225748479E-1,-6.485614777E-1,8.960442907E-1
2.864616041E1,3.430994749E-1,-6.814351082E-1,2.140064240E-1,7.923823609E-1
2.866425685E1,4.604106247E-1,-8.649083376E-1,6.522102356E-1,1.177039748E0
2.868237160E1,4.882445335E-1,-9.871965647E-1,7.161855698E-1,1.313720500E0
2.870047224E1,6.020810604E-1,-1.063216448E0,5.029630661E-1,1.321326101E0
2.871857857E1,9.631354809E-1,-1.059676170E0,-4.759502411E-2,1.432762655E0
2.873667769E1,1.122463107E0,-1.035816908E0,-6.949081421E-1,1.678015918E0
2.875478206E1,1.212695003E0,-8.782367706E-1,-1.303787231E0,1.985394203E0
2.877288490E1,1.175421596E0,-6.608679891E-1,-1.587940216E0,2.083246638E0
2.879099068E1,1.091074944E0,-5.078067780E-1,-1.729230881E0,2.106787055E0
2.880908882E1,9.595527649E-1,-4.913638532E-1,-1.713152885E0,2.024122712E0
2.882719881E1,8.964474201E-1,-5.681505203E-1,-1.496593475E0,1.834722056E0
2.884529811E1,8.945832253E-1,-7.030322552E-1,-1.089543343E0,1.575321616E0
2.886338991E1,8.078756332E-1,-8.758372664E-1,-7.458238602E-1,1.405705227E0
2.888150099E1,7.989719510E-1,-1.021462202E0,-5.213375092E-1,1.397688809E0
2.889961116E1,8.152194619E-1,-1.175656080E0,-4.598970413E-1,1.502749240E0
2.891769557E1,8.223093152E-1,-1.214821339E0,-3.362131119E-1,1.504999253E0
2.893581392E1,7.834933996E-1,-1.193156242E0,-3.658199310E-1,1.473535866E0
2.895391511E1,7.423638105E-1,-1.059391737E0,-5.568637848E-1,1.408372165E0
2.897202150E1,6.478073597E-1,-9.721496701E-1,-9.016466141E-1,1.475701858E0
2.899012263E1,7.019739747E-1,-9.109939337E-1,-8.817787170E-1,1.449210514E0
2.900821822E1,9.512168169E-1,-9.927059412E-1,-4.493074417E-1,1.446428600E0
2.902632643E1,1.186540842E0,-1.167203188E0,-1.786270142E-1,1.673962384E0
2.904443263E1,1.154013276E0,-1.469413996E0,-3.540277481E-1,1.901646597E0
2.906254012E1,1.300672412E0,-1.475156307E0,-6.590623856E-1,2.074174072E0
2.908063832E1,1.564203262E0,-1.299664259E0,-5.231800079E-1,2.099899129E0
2.909873598E1,1.551245689E0,-1.388946295E0,-5.723295212E-1,2.159420311E0
2.911684474E1,2.068539858E0,-1.773982763E0,-1.846599579E-2,2.725107884E0
2.913494685E1,2.720081091E0,-2.160444260E0,9.859724045E-1,3.610886612E0
2.915304896E1,2.974879026E0,-2.454469681E0,1.702869415E0,4.215932979E0
2.917115437E1,2.969155312E0,-2.631577969E0,1.912499428E0,4.404400065E0
2.918925691E1,2.738126993E0,-2.704899788E0,1.762615204E0,4.233277058E0
2.920735884E1,2.448861837E0,-2.763751507E0,1.477086067E0,3.977062979E0
2.922546040E1,2.207868576E0,-2.715031385E0,1.121948242E0,3.674894139E0
2.924356752E1,1.928037643E0,-2.482697010E0,1.273301125E0,3.391520213E0
2.926166920E1,1.741346002E0,-2.111624718E0,1.268779755E0,3.016794145E0
2.927977150E1,1.673593640E0,-1.729842186E0,7.651109695E-1,2.525601801E0
2.929787526E1,1.704771161E0,-1.356539369E0,-1.379976273E-1,2.182999568E0
2.931596590E1,1.762534738E0,-1.041828513E0,-9.734277725E-1,2.267045871E0
2.933406691E1,1.789553165E0,-8.607884645E-1,-1.178047180E0,2.308950513E0
2.935217104E1,1.712937593E0,-8.245077133E-1,-4.070568085E-1,1.944135647E0
2.937028749E1,1.601380944E0,-1.011057854E0,3.203563690E-1,1.920751706E0
2.938839229E1,1.367707610E0,-1.249340415E0,4.674024582E-1,1.910481781E0
2.940649373E1,1.235335827E0,-1.303371072E0,3.188285828E-1,1.823864694E0
2.942459590E1,1.207617998E0,-1.164034367E0,2.244329453E-1,1.692243299E0
2.944269954E1,1.231728911E0,-9.728764892E-1,4.041957855E-2,1.570120542E0
2.946080177E1,1.231040955E0,-8.684163094E-1,-2.255239487E-1,1.523308823E0
2.947890602E1,1.271315098E0,-9.156212807E-1,-4.050960541E-1,1.618242015E0
2.949700832E1,1.216015339E0,-9.420493841E-1,-4.330663681E-1,1.598029044E0
2.951511159E1,1.033371329E0,-8.162140846E-1,-2.314968109E-1,1.337031230E0
2.953321272E1,7.853855491E-1,-6.214638948E-1,-1.598081589E-1,1.014192527E0
2.955131905E1,5.353791714E-1,-4.249602556E-1,-2.464923859E-1,7.266227166E-1
2.956941737E1,1.851094961E-1,-3.282905221E-1,-4.396963120E-1,5.791140123E-1
2.958752681E1,-3.467458487E-2,-2.947981656E-1,-5.369224548E-1,6.135095824E-1
